time, accel_x, accel_y, accel_z, gyro_x, gyro_y, gyro_z
0.0,-1.7156538042,0.4354937132,7.6516484691499995,2.072971184643975,-1.3965906500345626,0.2533563573982875
0.004743337631225586,-3.0065815969000003,0.95413801175,1.4279168865499998,-1.4457653016814875,2.4387267458066626,-3.389843921139113
0.008322715759277344,-0.8279166196,0.26919254249999996,6.702296102599999,3.111442088988975,-2.4790438515047626,1.292896275909525
0.01189279556274414,0.18125631194999997,0.14057832774999998,8.720641965699999,0.18631389754425,-2.032501362636413,4.730845834529325
0.015474796295166016,-0.48035913694999993,0.011964112999999998,9.690931529999999,0.055894169263275,-0.17318029493047501,0.4692972189782625
0.019127607345581055,-0.53659046805,0.0023928226,9.66281586445,0.039400807841325006,-0.061086523785000006,0.134084919708075
0.022667884826660156,-0.5312066172,0.041874395499999995,9.660423041849999,0.037568212127775,-0.04825835379015,0.09957103376955001
0.026219844818115234,-0.5096712138,0.0131605243,9.62213788025,0.0410806872454125,-0.047494772242837505,0.0878118779409375
0.029772281646728516,-0.51625147595,0.0191425808,9.62213788025,0.037720928437237504,-0.049785516884775005,0.089491757345025
0.03369545936584473,-0.48454657649999994,0.011964112999999998,9.6023970938,0.0404698220075625,-0.050396382122625004,0.09483682817621251
0.03735089302062988,-0.4821537538999999,0.03409772205,9.6753781831,0.03955352415078751,-0.0464257580766,0.0920879346058875
0.040895938873291016,-0.46719861264999996,0.011365907350000001,9.655637396649999,0.043065999268425005,-0.0459676091482125,0.09712757281815
0.044464111328125,-0.4911268386499999,0.014955141249999998,9.644869694949998,0.0435241481968125,-0.046731190695525004,0.0966694238897625
0.04800128936767578,-0.4881358103999999,0.0167497582,9.64845892885,0.038789942603475,-0.0471893396239125,0.096822140199225
0.0515289306640625,-0.46002014485,0.014955141249999998,9.637093021499998,-0.04948008426585,-0.024434609514000002,-0.038179077365625
0.055088043212890625,-0.5228317380999999,0.01974078645,9.614361206799998,0.016646077731412502,-0.0423024177211125,0.08246680710975
0.05864381790161133,-0.5335994398,0.01256231865,9.687940501749999,0.034055737010137505,-0.04337143188735,0.0936150977005125
0.062256574630737305,-0.46002014485,0.013758729949999998,9.611968384199999,0.038789942603475,-0.04092797093595,0.0928515161532
0.0662848949432373,-0.50907300815,0.031106693799999998,9.623932497199998,0.036957346889925004,-0.045204027600900004,0.09453139555728751
0.07013583183288574,-0.5264209719999999,0.022133609050000003,9.617950440699998,0.0389426589129375,-0.0423024177211125,0.09804387067492501
0.0739295482635498,-0.5228317380999999,0.01615155255,9.647262517549999,0.040011673079175004,-0.04398229712520001,0.09804387067492501
0.07769346237182617,-0.47437708045,0.013758729949999998,9.598807859899999,0.0010690141662375,-0.0346666022479875,0.09575312603298751
0.08157038688659668,-0.49651068949999994,0.02691925425,9.629914553699999,0.0398589567697125,-0.041233403554875,0.10216721103041251
0.08557987213134766,-0.5120640364,0.0191425808,9.589834775149999,0.0403171056981,-0.041233403554875,0.09941831746008752
0.08945035934448242,-0.50668018555,0.0382851616,9.63290558195,0.039248091531862504,-0.0403171056981,0.1003346153168625
0.09363842010498047,-0.50548377425,0.021535403399999997,9.5964150373,0.040775254626487505,-0.03726277950885,0.10354165781557502
0.0978233814239502,-0.5036891573,0.0035892338999999997,9.6263253198,0.041233403554875,-0.037720928437237504,0.1003346153168625
0.10180807113647461,-0.5210371211499999,0.023928225999999997,9.535398060999999,0.0404698220075625,-0.03848450998455,0.1039998067439625
0.10585713386535645,-0.4779663143499999,0.0382851616,9.6059863277,0.0404698220075625,-0.037720928437237504,0.10338894150611251
0.1098639965057373,-0.5210371211499999,0.01734796385,9.5868437469,0.043676864506275004,-0.0346666022479875,0.104152523053425
0.11351752281188965,-0.51864429855,0.024526431649999996,9.53719267795,0.038179077365625,-0.035124751176375,0.10231992733987501
0.11719322204589844,-0.5096712138,0.014356935599999999,9.713663344699999,0.0364991979615375,-0.033444871772287506,0.105985118766975
0.12073969841003418,-0.4791627256499999,0.022731814700000002,9.574879633899998,0.032528573915512504,-0.031154127130350002,0.1039998067439625
0.12429451942443848,-0.49471607254999994,0.04247260115,9.6394858441,0.036651914271,-0.0270307867748625,0.1038470904345
0.12813615798950195,-0.51026941945,0.010767701699999998,9.647860723199999,0.0331394391533625,-0.0242818932045375,0.10216721103041251
0.1320171356201172,-0.5036891573,0.015553346899999999,9.5617191096,0.035735616414225006,-0.022296581181525,0.10338894150611251
0.13602638244628906,-0.52342994375,0.0346959277,9.61376300115,0.0374154958183125,-0.022754730109912503,0.10262535995880001
0.13976597785949707,-0.46061835049999994,0.04606183504999999,9.57667425085,0.03802636105616251,-0.0190895386828125,0.108428579718375
0.14345169067382812,-0.5276173833,0.032901310749999996,9.597013242949998,0.039400807841325006,-0.017409659278725,0.10705413293321252
0.14713191986083984,-0.5084748025,0.015553346899999999,9.593424009049999,0.036346481652075,-0.018020524516575,0.1049161046007375
0.15067172050476074,-0.5156532703,0.025722842949999998,9.6358966102,0.0343611696290625,-0.013897184161087501,0.10445795567235
0.15422463417053223,-0.50189454035,0.023928225999999997,9.647262517549999,0.0427605666495,-0.016187928803025,0.10812314709945
0.15780353546142578,-0.47258246349999994,0.051445685899999996,9.623932497199998,0.0374154958183125,-0.0097738438056,0.10308350888718751
0.1620790958404541,-0.51744788725,0.015553346899999999,9.574879633899998,0.035582900104762505,-0.0126754536853875,0.1062905513859
0.1660597324371338,-0.48275195955,0.03529413334999999,9.68674409045,0.0364991979615375,-0.0093156948772125,0.10308350888718751
0.16999077796936035,-0.5000999234,0.03409772205,9.5772724565,0.03359758808175,-0.0038179077365625004,0.101709062102025
0.17363643646240234,-0.4941178668999999,0.0394815729,9.509675218049999,0.039248091531862504,-0.004734205593337501,0.1036943741250375
0.17721819877624512,-0.48693939909999995,0.038883367249999995,9.57069219435,0.0328340065344375,-0.003359758808175,0.09468411186675
0.1807570457458496,-0.5060819798999999,0.021535403399999997,9.610771972899999,0.0313068434398125,-0.0016798794040875,0.0930042324626625
0.18428850173950195,-0.4821537538999999,0.03170489945,9.585049129949999,0.034055737010137505,0.0007635815473125001,0.094378679247825
0.18782639503479004,-0.5312066172,0.035892338999999995,9.61854864635,0.031154127130350002,0.0022907446419375,0.08750644532201252
0.19162797927856445,-0.52342994375,0.0382851616,9.6658068927,0.030237829273575,0.0056505034501125005,0.08643743115577501
0.1955251693725586,-0.48634119344999993,0.021535403399999997,9.607182738999999,0.029474247726262504,0.004734205593337501,0.0835358212759875
0.19947481155395508,-0.45224347139999993,0.0077766734499999995,9.61854864635,0.0268780704654,0.012828169994850001,0.0806342113962
0.20331740379333496,-0.51744788725,0.0047856452,9.65324457405,0.029016098797875,0.010384709043450001,0.080328778777275
0.20690679550170898,-0.5377868793499999,0.011964112999999998,9.611968384199999,0.025961772608625,0.0096211274961375,0.07956519722996251
0.21046662330627441,-0.4779663143499999,0.015553346899999999,9.633503787599999,0.0288633824884125,0.0145080493989375,0.0783434667542625
0.2140061855316162,-0.46121655614999996,0.0047856452,9.5509514079,0.029474247726262504,0.0135917515421625,0.07666358735017499
0.2175450325012207,-0.5335994398,0.022731814700000002,9.56471013785,0.026419921537012503,0.0129808863043125,0.07147123282845001
0.22111988067626953,-0.49830530645,0.01256231865,9.5928258034,0.025350907370775,0.0142026167800125,0.07192938175683751
0.22498130798339844,-0.5156532703,0.035892338999999995,9.638887638449999,0.028252517250562503,0.014966198327325,0.0697913534243625
0.22896862030029297,-0.49292145559999995,0.020937197749999997,9.6227360859,0.0236710279666875,0.0190895386828125,0.067500608782425
0.2330012321472168,-0.5000999234,-0.0029910282499999996,9.646066106249998,0.022754730109912503,0.022296581181525,0.06811147402027501
0.2367396354675293,-0.5258227663499999,0.005383850849999999,9.644869694949998,0.0270307867748625,0.0181732408260375,0.0645989989026375
0.240494966506958,-0.48933222169999996,0.024526431649999996,9.6574320136,0.026572637846475,0.0183259571355,0.06811147402027501
0.2441263198852539,-0.5306084115499999,0.01615155255,9.6023970938,0.029321531416800002,0.01771509189765,0.062460970570162505
0.2476646900177002,-0.5096712138,-0.0095712904,9.641280461049998,0.024587325823462503,0.0190895386828125,0.06169738902285
0.2511923313140869,-0.5395814963,0.0029910282499999996,9.62213788025,0.022754730109912503,0.0187841060638875,0.06307183580801251
0.25499820709228516,-0.48873401604999994,0.0323031051,9.5916293921,0.022907446419375,0.0206167017774375,0.059406644380912504
0.258988618850708,-0.4935196612499999,0.0191425808,9.61137017855,0.025961772608625,0.021532999634212503,0.0584903465241375
0.26297974586486816,-0.4989035121,0.017946169499999998,9.617950440699998,0.021991148562600003,0.021685715943675,0.058643062833600004
0.2665669918060303,-0.4731806691499999,0.03649054465,9.627521731099998,0.021074850705825,0.02504547475185,0.061086523785000006
0.27013707160949707,-0.5377868793499999,0.038883367249999995,9.534201649699998,0.0190895386828125,0.0261144889180875,0.057115899738975004
0.27367258071899414,-0.51026941945,0.020937197749999997,9.69272614695,0.021532999634212503,0.023518311657225,0.0569631834295125
0.2772097587585449,-0.5024927459999999,0.030508488149999995,9.579665279099999,0.022754730109912503,0.0232128790383,0.05894849545252501
0.28073811531066895,-0.48275195955,0.04725824635,9.63529840455,0.021074850705825,0.020463985467975,0.0560468855727375
0.28430652618408203,-0.52223353245,-0.005982056499999999,9.61495941245,0.023518311657225,0.019242254992275,0.055588736644350004
0.28815603256225586,-0.5132604477,0.035892338999999995,9.637691227149999,0.023365595347762502,0.0255036236802375,0.05543602033488751
0.29215431213378906,-0.5210371211499999,0.0095712904,9.60419171075,0.0230601627288375,0.020769418086900002,0.054977871406500005
0.29608678817749023,-0.5120640364,0.0191425808,9.588638363849999,0.021532999634212503,0.020922134396362504,0.0525344104551
0.2996644973754883,-0.48095734259999995,0.020937197749999997,9.637691227149999,0.0232128790383,0.0221438648720625,0.053603424621337506
0.30322813987731934,-0.52223353245,0.011964112999999998,9.660423041849999,0.0212275670152875,0.021532999634212503,0.053450708311875005
0.30677223205566406,-0.50309095165,0.005383850849999999,9.620343263299999,0.020769418086900002,0.020922134396362504,0.0529925593834875
0.3103029727935791,-0.50548377425,0.04007977854999999,9.6538427797,0.0261144889180875,0.020463985467975,0.054672438787575
0.31383347511291504,-0.51505506465,0.010767701699999998,9.5868437469,0.0193949713017375,0.020769418086900002,0.052228977836175
0.3175241947174072,-0.48035913694999993,0.03649054465,9.6263253198,0.0261144889180875,0.0236710279666875,0.05146539628886251
0.32149720191955566,-0.52342994375,0.0131605243,9.59940606555,0.0195476876112,0.023518311657225,0.05192354521725
0.3256199359893799,-0.5108676251,0.046660040699999995,9.620343263299999,0.0221438648720625,0.023518311657225,0.046731190695525004
0.3293333053588867,-0.48574298779999997,0.024526431649999996,9.6083791503,0.020769418086900002,0.020005836539587502,0.048869219028000004
0.33295416831970215,-0.48095734259999995,0.022133609050000003,9.608977355949998,0.019853120230125,0.022296581181525,0.05161811259832501
0.33650875091552734,-0.5000999234,0.01734796385,9.6059863277,0.0239764605856125,0.02138028332475,0.052228977836175
0.34045839309692383,-0.47198425785,0.022133609050000003,9.623932497199998,0.0239764605856125,0.018631389754425,0.049785516884775005
0.34400129318237305,-0.49531427819999996,0.038883367249999995,9.6957171752,0.022602013800450002,0.0175623755881875,0.050396382122625004
0.347583532333374,-0.48095734259999995,0.013758729949999998,9.66640509835,0.023518311657225,0.018936822373350003,0.05161811259832501
0.35143256187438965,-0.5294120002499999,0.023928225999999997,9.601798888149998,0.02015855284905,0.017409659278725,0.046731190695525004
0.3554818630218506,-0.46540399569999996,0.0191425808,9.63649481585,0.018020524516575,0.0171042266598,0.052687126764562504
0.3594248294830322,-0.34277183744999995,0.015553346899999999,9.6454679006,0.020463985467975,0.0195476876112,0.0447458786725125
0.36299681663513184,-0.48873401604999994,0.023928225999999997,9.644869694949998,0.021685715943675,0.010384709043450001,0.0523816941456375
0.36658287048339844,-0.48873401604999994,0.03649054465,9.7112705221,0.020463985467975,0.0135917515421625,0.052228977836175
0.3701167106628418,-0.5000999234,0.035892338999999995,9.62931634805,0.024129176895075,0.0129808863043125,0.048563786409075
0.37364745140075684,-0.5216353268,0.0323031051,9.61735223505,0.023518311657225,0.016340645112487503,0.047342055933375
0.3772001266479492,-0.46600220135,0.027517459899999996,9.5880401582,0.02504547475185,0.015882496184100002,0.049021935337462505
0.3809959888458252,-0.50069812905,0.030508488149999995,9.6442714893,0.0239764605856125,0.013897184161087501,0.05161811259832501
0.3850574493408203,-0.51266224205,-0.0035892338999999997,9.619146851999998,0.020769418086900002,0.010995574281300002,0.047952921171225
0.3890089988708496,-0.53659046805,0.040677984199999996,9.727422074649999,0.02138028332475,0.0120645884475375,0.047647488552300006
0.3925900459289551,-0.5084748025,0.023928225999999997,9.614361206799998,0.023365595347762502,0.0080939644015125,0.049632800575312504
0.396176815032959,-0.51625147595,0.023928225999999997,9.6131647955,0.023365595347762502,0.010384709043450001,0.049021935337462505
0.399716854095459,-0.49052863299999994,0.0323031051,9.638887638449999,0.020769418086900002,0.0105374253529125,0.050396382122625004
0.4032435417175293,-0.4941178668999999,0.020937197749999997,9.647860723199999,0.022602013800450002,0.0105374253529125,0.050396382122625004
0.4067718982696533,-0.5180460928999999,0.027517459899999996,9.655039190999998,0.027183503084325,0.007177666544737501,0.0520762615267125
0.4103379249572754,-0.5228317380999999,0.0017946169499999999,9.57787066215,0.025961772608625,0.0038179077365625004,0.0569631834295125
0.4142735004425049,-0.4881358103999999,0.0263210486,9.658628424899998,0.023823744276150003,0.005497787140650001,0.058795779143062506
0.41826748847961426,-0.5204389155,0.0346959277,9.646664311899999,0.022907446419375,0.0099265601150625,0.06414084997425
0.4223158359527588,-0.50787659685,0.0251246373,9.54197832315,0.0268780704654,0.0012217304757,0.0621555379512375
0.42591381072998047,-0.50428736295,0.02691925425,9.63529840455,0.025198191061312502,0.005192354521725001,0.068722339258125
0.42946529388427734,-0.47377887479999997,0.032901310749999996,9.598807859899999,0.026572637846475,-0.0013744467851625002,0.0707076512811375
0.43299436569213867,-0.47676990305,0.0346959277,9.638887638449999,0.025961772608625,-0.00061086523785,0.0707076512811375
0.43653011322021484,-0.50668018555,0.010169496049999999,9.549156790949999,0.0255036236802375,-0.0012217304757,0.0713185165189875
0.4400601387023926,-0.5072783912,0.047856451999999994,9.6035935051,0.02626720522755,-0.000305432618925,0.06902777187705
0.44384312629699707,-0.5096712138,0.04127618984999999,9.623932497199998,0.026419921537012503,0.005955936069037501,0.06276640318908751
0.4478325843811035,-0.48275195955,0.029910282499999996,9.625128908499999,0.027794368322175002,0.0077885317825875005,0.06734789247296251
0.45180749893188477,-0.50428736295,0.017946169499999998,9.632307376299998,0.0270307867748625,0.0061086523785000004,0.06276640318908751
0.45543766021728516,-0.4851447821499999,0.014955141249999998,9.5724868113,0.02626720522755,0.0061086523785000004,0.06291911949855
0.4590001106262207,-0.50907300815,0.031106693799999998,9.62931634805,0.0230601627288375,0.0038179077365625004,0.06291911949855
0.4625380039215088,-0.50668018555,0.027517459899999996,9.6167540294,0.0268780704654,0.006414084997425001,0.064446282593175
0.4660770893096924,-0.5096712138,0.027517459899999996,9.6658068927,0.023823744276150003,0.006414084997425001,0.062613686879625
0.4696040153503418,-0.5312066172,0.0083748791,9.667003304,0.026572637846475,0.0044287729744125,0.063835417355325
0.4731740951538086,-0.51026941945,0.011964112999999998,9.561120903949998,0.025198191061312502,0.00671951761635,0.06154467271338751
0.47715091705322266,-0.5048855686,0.022731814700000002,9.641280461049998,0.025656339989700003,0.006872233925812501,0.060781091166075
0.48114585876464844,-0.49531427819999996,-0.0083748791,9.567701166099999,0.0280998009411,0.0041233403554875,0.064446282593175
0.48523807525634766,-0.51026941945,0.028713871199999998,9.587441952549998,0.028557949869487502,0.0065668013068875,0.0645989989026375
0.48880863189697266,-0.5300102058999999,0.007178467799999999,9.5856473356,0.029016098797875,0.00671951761635,0.060933807475537505
0.4923529624938965,-0.5108676251,0.01854437515,9.7040920543,0.026419921537012503,0.0024434609514,0.0647517152121
0.4958827495574951,-0.50069812905,0.010767701699999998,9.64367328365,0.0261144889180875,0.005803219759575,0.065668013068875
0.49944543838500977,-0.45224347139999993,0.06281159324999999,9.5928258034,0.0280998009411,0.000305432618925,0.0661261619972625
0.5029721260070801,-0.4881358103999999,0.0077766734499999995,9.601798888149998,0.023823744276150003,-0.0018325957135500001,0.063835417355325
0.5067610740661621,-0.48693939909999995,0.044267218100000005,9.62213788025,0.02626720522755,0.0073303828542000005,0.06536258044995001
0.5107541084289551,-0.50548377425,0.0263210486,9.62213788025,0.026572637846475,0.0093156948772125,0.066278878306725
0.5148019790649414,-0.48454657649999994,0.022731814700000002,9.638887638449999,0.027794368322175002,0.0099265601150625,0.062308254260700004
0.5211384296417236,-0.48873401604999994,0.038883367249999995,9.6263253198,0.021838432253137502,0.0044287729744125,0.06337726842693751
0.5247461795806885,-0.50668018555,0.0263210486,9.61854864635,0.020005836539587502,0.0048869219028,0.0649044315215625
0.5282866954803467,-0.51146583075,0.008973084749999999,9.58265630735,0.025198191061312502,0.0056505034501125005,0.062460970570162505
0.5318253040313721,-0.49531427819999996,0.01734796385,9.6000042712,0.024434609514000002,0.007635815473125001,0.06505714783102501
0.5353617668151855,-0.49531427819999996,0.0382851616,9.615557618099999,0.025350907370775,0.0035124751176375,0.0618501053323125
0.5392007827758789,-0.5306084115499999,-0.0017946169499999999,9.576076045199999,0.0236710279666875,0.0039706240460250005,0.06414084997425
0.5432140827178955,-0.50069812905,0.03170489945,9.658628424899998,0.023518311657225,0.0036651914271000003,0.058337630214675
0.5471854209899902,-0.49471607254999994,0.01974078645,9.664012275749998,0.027641652012712504,0.038789942603475,0.06307183580801251
0.5507595539093018,-0.49232324994999993,0.03649054465,9.6454679006,0.0270307867748625,0.0036651914271000003,0.063835417355325
0.5543363094329834,-0.4959124838499999,-0.11006983959999998,9.6215396746,0.026572637846475,0.0036651914271000003,0.06658431092565001
0.5578768253326416,-0.48335016519999996,0.0263210486,9.623932497199998,0.028252517250562503,0.004581489283875,0.063224552117475
0.5614044666290283,-0.4899304273499999,0.028713871199999998,9.615557618099999,0.0242818932045375,0.0044287729744125,0.0649044315215625
0.5649433135986328,-0.49292145559999995,0.023330020349999998,9.744171832849998,0.024587325823462503,0.003359758808175,0.0659734456878
0.5686767101287842,-0.50309095165,0.020937197749999997,9.605388122049998,0.0255036236802375,0.0039706240460250005,0.06780604140135
0.572685718536377,-0.52701917765,0.037686955949999996,9.61974505765,0.025198191061312502,0.005192354521725001,0.06414084997425
0.5767676830291748,-0.49950171774999996,0.028713871199999998,9.597611448599999,0.02626720522755,0.0029016098797875,0.06414084997425
0.5827970504760742,-0.48873401604999994,0.03529413334999999,9.625128908499999,0.025961772608625,0.00427605666495,0.06307183580801251
0.5864017009735107,-0.50428736295,0.04606183504999999,9.610771972899999,0.0230601627288375,0.0056505034501125005,0.06429356628371251
0.5899357795715332,-0.51505506465,0.025722842949999998,9.61017376725,0.028557949869487502,0.005192354521725001,0.06658431092565001
0.5934956073760986,-0.4935196612499999,0.014356935599999999,9.580861690399999,0.025809056299162504,0.002138028332475,0.06414084997425
0.5970466136932373,-0.5413761132499999,0.015553346899999999,9.6622176588,0.0288633824884125,0.005955936069037501,0.064446282593175
0.6007349491119385,-0.50548377425,0.0095712904,9.6658068927,0.027183503084325,0.0056505034501125005,0.0652098641404875
0.6045677661895752,-0.5431707302,0.0077766734499999995,9.53719267795,0.02626720522755,0.0039706240460250005,0.0670424598540375
0.6085436344146729,-0.4875376047499999,0.0083748791,9.6394858441,0.025198191061312502,0.005803219759575,0.0645989989026375
0.6124086380004883,-0.5156532703,0.044267218100000005,9.67477997745,0.023518311657225,0.0074830991636625,0.06536258044995001
0.6160256862640381,-0.4935196612499999,0.010767701699999998,9.63649481585,0.027183503084325,0.0041233403554875,0.065668013068875
0.619579553604126,-0.5132604477,0.01854437515,9.642476872349999,0.0239764605856125,0.004581489283875,0.068722339258125
0.6231122016906738,-0.47377887479999997,0.0382851616,9.6705925379,0.02626720522755,0.0018325957135500001,0.0652098641404875
0.6266770362854004,-0.48933222169999996,0.05503491979999999,9.6012006825,0.0268780704654,0.0041233403554875,0.06429356628371251
0.6303586959838867,-0.49232324994999993,0.04307080679999999,9.61495941245,0.022754730109912503,0.005192354521725001,0.0603229422376875
0.6369779109954834,-0.5371886737,0.021535403399999997,9.556933464399998,0.025809056299162504,0.004734205593337501,0.0659734456878
0.6441652774810791,-0.5144568589999999,0.0083748791,9.64965534015,0.0230601627288375,0.0036651914271000003,0.059406644380912504
0.6510701179504395,-0.4941178668999999,0.023330020349999998,9.495318282449999,0.026725354155937502,0.008857545948825,0.0659734456878
0.6578512191772461,-0.47976093129999997,0.023928225999999997,9.611968384199999,0.0270307867748625,0.0120645884475375,0.0636827010458625
0.6656949520111084,-0.51984070985,0.014356935599999999,9.6095755616,0.024740042132925,0.005955936069037501,0.0658207293783375
0.6731107234954834,-0.5000999234,0.0083748791,9.63649481585,0.027641652012712504,0.0044287729744125,0.0639881336647875
0.6803147792816162,-0.5072783912,-0.13698909385,9.607182738999999,0.021838432253137502,0.0120645884475375,0.06139195640392501
0.6870837211608887,-0.38584264425,-0.0945164927,9.5557370531,0.010995574281300002,-0.015882496184100002,0.059406644380912504
0.693824052810669,-0.4019941968,0.07357929495,9.585049129949999,0.0080939644015125,-0.0181732408260375,0.06047565854715
0.7009382247924805,-0.5970092387,0.0083748791,9.5916293921,0.0044287729744125,-0.010079276424525,0.056352318191662504
0.7081613540649414,-0.5359922624,-0.05204389154999999,9.655039190999998,0.0123700210664625,-0.0097738438056,0.054977871406500005
0.7151243686676025,-0.58803615395,-0.014356935599999999,9.646664311899999,0.0097738438056,-0.012217304757000001,0.04337143188735
0.7218077182769775,-0.5204389155,-0.058624153699999994,9.594022214699999,0.014660765708400001,-0.0048869219028,0.0368046305804625
0.7290408611297607,-0.49651068949999994,-0.029312076849999997,9.6418786667,0.015577063565175001,-0.0074830991636625,0.025350907370775
0.736008882522583,-0.44446679795,-0.053240302850000004,9.6981099978,0.010079276424525,-0.0135917515421625,0.012828169994850001
0.7425074577331543,-0.5000999234,-0.09272187574999999,9.5772724565,0.0129808863043125,-0.0097738438056,0.000305432618925
0.7487928867340088,-0.5377868793499999,-0.08255237969999998,9.637691227149999,0.0132863189232375,-0.0157297798746375,-0.0036651914271000003
0.7547752857208252,-0.47976093129999997,-0.0394815729,9.672985360499998,0.018936822373350003,-0.0029016098797875,-0.01160643951915
0.7615513801574707,-0.47078784655,-0.0011964113,9.632307376299998,0.0187841060638875,-0.0099265601150625,-0.0183259571355
0.7679953575134277,-0.5060819798999999,0.05084748024999999,9.6382894328,0.0224492974909875,-0.0061086523785000004,-0.019700403920662503
0.7746016979217529,-0.47736810869999996,0.1004985492,9.702895643,0.026419921537012503,-0.007941248092050001,-0.0074830991636625
0.7807343006134033,-0.5617151053499999,0.18843477974999998,9.552746024849998,0.030848694511425,-0.0053450708311875,0.002138028332475
0.7866988182067871,-0.5491527867,0.3296113131499999,9.63290558195,0.034513885938525,-0.0061086523785000004,0.0270307867748625
0.7929303646087646,-0.6843472635999999,0.17886348935000002,9.70947590515,0.04092797093595,0.0041233403554875,0.056352318191662504
0.7993667125701904,-0.41036907589999994,0.06520441585,9.687940501749999,0.0342084533196,-0.0029016098797875,0.06505714783102501
0.8058347702026367,-0.5988038556499999,0.1447657673,9.641280461049998,0.039400807841325006,-0.0029016098797875,0.06505714783102501
0.8119068145751953,-0.7603193811499999,0.03170489945,9.535398060999999,0.0410806872454125,0.020769418086900002,0.06536258044995001
0.8178622722625732,-0.3493520996,-0.04725824635,9.566504754799999,0.048563786409075,0.07498370794608751,0.0639881336647875
0.8237698078155518,-0.4779663143499999,0.07477570624999999,9.509077012399999,0.040011673079175004,0.047494772242837505,0.06337726842693751
0.8301947116851807,-0.5048855686,0.05802594804999999,9.6131647955,0.04780020486176251,0.047647488552300006,0.06337726842693751
0.8366193771362305,-0.46301117309999995,-0.01854437515,9.4217389875,0.033292155462825004,0.025961772608625,0.0659734456878
0.8426978588104248,-0.48275195955,-0.013758729949999998,9.54197832315,0.028710666178950003,0.0087048296393625,0.0676533250918875
0.8486225605010986,-0.46420758439999993,-0.010169496049999999,9.700502820399999,0.0236710279666875,-0.0016798794040875,0.0670424598540375
0.8545818328857422,-0.49770710079999997,0.05084748024999999,9.531808827099999,0.028557949869487502,-0.0009162978567750001,0.06734789247296251
0.8608560562133789,-0.8566304908,0.13938191645,9.5007021333,0.030848694511425,-0.0145080493989375,0.05757404866736251
0.8672008514404297,-0.35832518435,0.04007977854999999,9.5054877785,0.021991148562600003,-0.033444871772287506,0.050396382122625004
0.8735558986663818,-0.63948183985,0.04247260115,9.76690364755,0.022754730109912503,-0.021532999634212503,0.056352318191662504
0.8794772624969482,-0.42532421714999996,-0.053240302850000004,9.61376300115,0.027641652012712504,-0.0062613686879625,0.06902777187705
0.8853869438171387,-0.7184449856499999,0.21116659445,9.6502535458,0.036651914271,0.014660765708400001,0.032070424987125
0.8916115760803223,-0.50548377425,0.14416756165,9.602995299449999,0.031154127130350002,0.0090102622582875,-0.0056505034501125005
0.8980112075805664,-0.41455651544999994,-0.08075776274999999,9.608977355949998,0.029779680345187503,0.016798794040875,0.035735616414225006
0.9043798446655273,-0.5036891573,0.017946169499999998,9.6502535458,0.0230601627288375,0.016646077731412502,0.05192354521725
0.9103169441223145,-0.42771703974999997,0.027517459899999996,9.623932497199998,0.022907446419375,0.012217304757000001,0.0537561409308
0.9162099361419678,-0.37148570864999997,0.020937197749999997,9.64845892885,0.027183503084325,0.0007635815473125001,0.05177082890778751
0.9222898483276367,-0.54017970195,-0.0346959277,9.561120903949998,0.0270307867748625,-0.012217304757000001,0.0679587577108125
0.9286661148071289,-0.40259240244999994,0.037686955949999996,9.6131647955,0.027183503084325,-0.0038179077365625004,0.056352318191662504
0.935168981552124,-0.5264209719999999,0.028713871199999998,9.583852718649998,0.0236710279666875,-0.005497787140650001,0.0606283748566125
0.9411163330078125,-0.5629115166499999,0.04725824635,9.570093988699998,0.025656339989700003,-0.0018325957135500001,0.05803219759575
0.947019100189209,-0.5300102058999999,0.00658026215,9.6095755616,0.030237829273575,0.0018325957135500001,0.06123924009446251
0.9530894756317139,-0.48335016519999996,0.02691925425,9.632307376299998,0.025961772608625,-0.0009162978567750001,0.062460970570162505
0.9595110416412354,-0.44087756405,0.0334995164,9.71186872775,0.030085112964112502,-0.00045814892838750003,0.0600175096187625
0.9658918380737305,-0.46899322959999995,0.06161518194999999,9.527621387549999,0.024740042132925,-0.0039706240460250005,0.0523816941456375
0.9724438190460205,-0.46719861264999996,0.04606183504999999,9.7040920543,0.022602013800450002,-0.0010690141662375,0.0532979920024125
0.9792909622192383,-0.47377887479999997,0.007178467799999999,9.624530702849999,0.022754730109912503,-0.0061086523785000004,0.057726764976825
0.9876255989074707,-0.48574298779999997,0.00059820565,9.654440985349998,0.0221438648720625,-0.02138028332475,0.06658431092565001
0.9947199821472168,-0.51266224205,-0.032901310749999996,9.6442714893,0.016646077731412502,-0.019700403920662503,0.0731511122325375
1.002243995666504,-0.5306084115499999,0.0023928226,9.61017376725,0.021838432253137502,0.0019853120230125003,0.0759000058028625
1.0090887546539307,-0.6532405697999999,0.00658026215,9.717850784249999,0.0313068434398125,0.016798794040875,0.0794124809205
1.0158531665802002,-0.51266224205,0.0,9.7112705221,0.026725354155937502,0.028405233560025,0.072998395923075
1.0224578380584717,-0.18843477974999998,0.0017946169499999999,9.631110965,0.030085112964112502,0.0090102622582875,0.07162394913791251
1.0292341709136963,-0.7483552681499999,0.10648060570000001,9.623932497199998,0.030237829273575,0.0303905455830375,0.0684169066392
1.0359411239624023,-0.5587240770999999,0.05503491979999999,9.601798888149998,0.037568212127775,0.02504547475185,0.07192938175683751
1.04530930519104,-0.6299105494499999,0.035892338999999995,9.72383284075,0.027794368322175002,0.043676864506275004,0.06688974354457501
1.0514001846313477,-0.43728833014999996,0.0023928226,9.589236569499999,0.0342084533196,0.032681290224975006,0.0694859208054375
1.0575053691864014,-0.5718846013999999,0.0251246373,9.6394858441,0.0280998009411,0.0303905455830375,0.069333204495975
1.0635201930999756,-0.3978067572499999,0.014955141249999998,9.602995299449999,0.0261144889180875,0.0065668013068875,0.0676533250918875
1.0703027248382568,-0.5216353268,0.017946169499999998,9.623932497199998,0.02993239665465,0.005803219759575,0.0696386371149
1.0762505531311035,-0.5210371211499999,0.029312076849999997,9.6562356023,0.023365595347762502,0.0048869219028,0.06887505556758751
1.082010269165039,-0.47497528609999995,0.03170489945,9.638887638449999,0.026419921537012503,0.0105374253529125,0.062460970570162505
1.0880067348480225,-0.5144568589999999,0.0047856452,9.65324457405,0.025656339989700003,0.009468411186675001,0.0671951761635
1.094372034072876,-0.4989035121,0.00418743955,9.63290558195,0.0232128790383,0.005192354521725001,0.06811147402027501
1.1001615524291992,-0.45104706009999995,0.023928225999999997,9.644869694949998,0.028252517250562503,0.005192354521725001,0.06414084997425
1.10646390914917,-0.49292145559999995,0.0131605243,9.608977355949998,0.024587325823462503,0.0019853120230125003,0.066278878306725
1.1139070987701416,-0.58923256525,0.07118647234999999,9.660423041849999,0.031459559749275,-0.010384709043450001,0.0647517152121
1.1216914653778076,-0.60000026695,0.0167497582,9.65683380795,0.026419921537012503,0.0013744467851625002,0.06291911949855
1.128216028213501,-0.51385865335,0.005383850849999999,9.638887638449999,0.026572637846475,0.010995574281300002,0.0636827010458625
1.1344189643859863,-0.44805603185,0.022133609050000003,9.632307376299998,0.024892758442387503,0.0096211274961375,0.069944069733825
1.1403067111968994,-0.5838487144,0.0323031051,9.67717280005,0.0203112691585125,0.010384709043450001,0.0659734456878
1.1460270881652832,-0.47377887479999997,0.028115665550000002,9.578468867799998,0.023365595347762502,0.0080939644015125,0.0667370272351125
1.151949167251587,-0.48574298779999997,0.057427742399999995,9.608977355949998,0.027488935703250002,0.005192354521725001,0.0676533250918875
1.1584289073944092,-0.5407779076,0.038883367249999995,9.775876732299999,0.0268780704654,0.0024434609514,0.0694859208054375
1.1643075942993164,-0.50907300815,0.0346959277,9.629914553699999,0.025350907370775,0.0035124751176375,0.066278878306725
1.1702744960784912,-0.5294120002499999,0.01734796385,9.6394858441,0.024129176895075,0.0038179077365625004,0.06429356628371251
1.1760010719299316,-0.47976093129999997,0.023928225999999997,9.632307376299998,0.024892758442387503,0.0018325957135500001,0.0664315946161875
1.1819462776184082,-0.48634119344999993,0.030508488149999995,9.608977355949998,0.027183503084325,-0.00045814892838750003,0.063835417355325
1.18804931640625,-0.38883367249999995,0.06161518194999999,9.552746024849998,0.0221438648720625,-0.048105637480687496,0.057726764976825
1.1936898231506348,-0.39182470075,0.053240302850000004,9.468997233849999,0.0288633824884125,-0.08491026806115,0.055894169263275
1.1992783546447754,-0.7046862557,0.005982056499999999,9.745368244149999,0.025961772608625,-0.04199698510218751,0.0578794812862875
1.204627275466919,-0.56410792795,0.0502492746,9.7040920543,0.02993239665465,-0.0012217304757,0.054672438787575
1.210108995437622,-0.5341976454499999,0.01854437515,9.6957171752,0.030543261892500003,0.0048869219028,0.0465784743860625
1.2159299850463867,-0.57726845225,0.05503491979999999,9.6634140701,0.029016098797875,0.0157297798746375,0.037720928437237504
1.2217824459075928,-0.5335994398,0.0693918554,9.633503787599999,0.028557949869487502,0.012828169994850001,0.035582900104762505
1.2270996570587158,-0.54735816975,0.04366901245,9.77886776055,0.024892758442387503,0.014660765708400001,0.0280998009411
1.2325849533081055,-0.52821558895,0.10109675484999998,9.5772724565,0.02993239665465,0.0154243472557125,0.018936822373350003
1.2382221221923828,-0.5503491979999999,0.11844471869999999,9.511469835,0.0255036236802375,0.0025961772608625003,0.0105374253529125
1.2444658279418945,-0.7393821834,-0.04486542375,9.6263253198,0.019700403920662503,0.03604104903315,-0.01649336142195
1.2510292530059814,-0.32243284534999994,-0.017946169499999998,9.5449693514,0.0221438648720625,0.0056505034501125005,-0.033444871772287506
1.2575008869171143,-0.42771703974999997,0.0011964113,9.571290399999999,0.022907446419375,-0.015271630946250002,-0.048105637480687496
1.2633883953094482,-0.40319060809999996,-0.0131605243,9.559326287,0.024740042132925,-0.0038179077365625004,-0.05742133235790001
1.2693367004394531,-0.6029912951999999,-0.04307080679999999,9.594022214699999,0.025961772608625,0.0039706240460250005,-0.0856738496084625
1.275542974472046,-0.36729826909999996,-0.005982056499999999,9.5772724565,0.0242818932045375,0.007941248092050001,-0.1012509131736375
1.2821073532104492,-0.3218346397,0.00658026215,9.64008404975,0.019853120230125,0.0016798794040875,-0.1076649981710625
1.2884747982025146,-0.31226334929999994,-0.014955141249999998,9.60419171075,0.021991148562600003,-0.005192354521725001,-0.12644910423495
1.294391393661499,-0.09391828705,0.0251246373,9.726823868999999,0.0212275670152875,-0.0175623755881875,-0.1800525288562875
1.300248384475708,0.22671994134999998,0.39122649509999996,9.5724868113,0.0273362193937875,-0.0129808863043125,-0.289244690121975
1.3063158988952637,0.22671994134999998,0.38763726119999997,9.5294160045,0.023518311657225,-0.009468411186675001,-0.367435440566775
1.3127381801605225,-0.7256234534499999,0.12083754129999999,9.552746024849998,0.0132863189232375,0.01771509189765,-0.2686279883445375
1.3194389343261719,-1.29990087745,-0.17048861024999998,9.526424976249999,0.01160643951915,0.03848450998455,-0.0725402469946875
1.3253722190856934,-1.7599210222999997,-0.40857445894999994,9.6358966102,0.0039706240460250005,-0.005955936069037501,0.0374154958183125
1.3312451839447021,-0.9086743823499999,-0.0191425808,9.6957171752,0.0085521133299,-0.0061086523785000004,0.082772239728675
1.337724208831787,-0.4618147618,-0.0035892338999999997,9.5916293921,0.01404990047055,-0.0074830991636625,0.07391469377985001
1.34495210647583,-0.5359922624,0.0251246373,9.650851751449999,0.014355333089475002,-0.008857545948825,0.07849618306372501
1.35243558883667,-0.49770710079999997,0.03649054465,9.5856473356,0.011301006900225001,0.0025961772608625003,0.07987062984888751
1.3590812683105469,-0.5623133109999999,0.01854437515,9.6394858441,0.020463985467975,0.01404990047055,0.082161374490825
1.3665485382080078,-0.47976093129999997,0.015553346899999999,9.6574320136,0.012828169994850001,0.0105374253529125,0.0853684169895375
1.3735549449920654,-0.38464623295,-0.014955141249999998,9.710074110799999,0.010079276424525,-0.003359758808175,0.1123992037644
1.3807458877563477,-0.3337987527,0.017946169499999998,9.6215396746,0.0056505034501125005,0.0169515103503375,0.1319468913756
1.3877248764038086,-0.6388836341999999,0.024526431649999996,9.6574320136,0.014355333089475002,0.055588736644350004,0.1207986007848375
1.3943798542022705,-0.5754738353000001,0.04905286329999999,9.6634140701,0.0171042266598,0.058337630214675,0.111482905907625
1.4011242389678955,-0.6299105494499999,0.06400800455,9.651449957099999,0.01404990047055,0.059406644380912504,0.1036943741250375
1.4082908630371094,-0.6963113766000001,0.02691925425,9.66161945315,-0.0019853120230125003,0.0710130839000625,0.0832303886570625
1.4154086112976074,-0.76989067155,0.09272187574999999,9.6945207639,-0.0001527163094625,0.0700967860432875,0.054061573549725
1.4221241474151611,-0.7274180704000001,-0.0538385085,9.7435736272,-0.034513885938525,0.035582900104762505,0.045204027600900004
1.428771734237671,-0.8542376682,-0.01854437515,9.7196454012,-0.07773260151641251,-0.00671951761635,0.0545197224781125
1.4357759952545166,-0.9361918422500001,0.040677984199999996,9.878768104099999,-0.10613783507643751,-0.0175623755881875,0.0881173105598625
1.4421508312225342,-0.7884350467,-0.12023933564999999,9.82433138995,-0.1504255648205625,-0.06688974354457501,0.1553124867233625
1.4489409923553467,-0.38225341035,-0.15732808594999997,9.958927661199999,-0.19669860658770003,-0.0468839070049875,0.23441953502493754
1.4548583030700684,-0.32303105099999996,-0.15014961815,10.10668445675,-0.22602013800450002,0.002138028332475,0.2557998183496875
1.4607417583465576,-0.3355933696499999,-0.17108681589999997,9.97029356855,-0.23961188954666252,0.07987062984888751,0.31337386701705
1.4668188095092773,-0.28534409504999997,-0.11485548479999999,10.076774174250001,-0.244040662521075,0.187841060638875,0.3798054616332375
1.4732224941253662,-0.17647066675,0.0669990328,10.1419785901,-0.240986336331825,0.2732094776284125,0.37491853973043754
1.4796366691589355,0.19262221929999998,0.3278166962,10.033703367449998,-0.21441369848535002,0.30940324297102506,0.3462078735514875
1.4855594635009766,0.8243273856999999,0.5455635528,9.94756175385,-0.18203784087930003,0.27351491024733754,0.3310889589147
1.4914209842681885,0.58085768615,0.6586244206499999,9.6227360859,-0.0887281757977125,0.2374738612141875,0.30298915797360004
1.49739408493042,0.1268195978,0.7758727280500001,9.503693161549998,-0.060781091166075,0.22785273371805,0.251371045375275
1.5037319660186768,-0.4247260115,0.8793623054999999,9.543174734449998,-0.0398589567697125,0.20357084051351249,0.232128790383
1.5103566646575928,-1.01635139935,0.8482556117,9.629914553699999,-0.0621555379512375,0.15561791934228753,0.267864406797225
1.5165512561798096,-1.24725878025,0.49052863299999994,9.584450924299999,-0.10445795567235,0.1437060472042125,0.3330742709377125
1.5224618911743164,-1.3262219260499999,0.4331008906,9.6885387074,-0.131641458756675,0.1258382389971,0.375376688658825
1.528360366821289,-1.1383853519499998,0.24287149389999999,9.896116067949999,-0.1308778772093625,0.0713185165189875,0.364991979615375
1.5349080562591553,-0.92542414055,0.0047856452,10.211370445499998,-0.10155634579256251,-0.0065668013068875,0.29489519357208754
1.541757345199585,-0.8380861156499999,-0.1483550012,10.533803290849997,-0.044287729744125,-0.0591012117619875,0.1999056490864125
1.5478641986846924,-0.42652062845,-0.39481572899999995,10.761719643499998,0.031459559749275,-0.0700967860432875,0.1075122818616
1.553755521774292,-0.0873380249,-0.41874395499999995,10.998609080900001,0.15974125969777503,-0.06154467271338751,0.0203112691585125
1.559605360031128,0.3565305674,-0.4283152454,11.251051865200001,0.267864406797225,-0.06169738902285,-0.08689558008416251
1.5658767223358154,0.5946164160999999,-0.4731806691499999,11.119446622199998,0.4063780994797125,-0.05436700616865,-0.1614211391018625
1.5724403858184814,0.42592242280000003,-0.5306084115499999,10.96211853625,0.568410103819425,-0.03359758808175,-0.2136501169380375
1.5789093971252441,0.2548356069,-0.5706881900999999,10.804192244649998,0.6568328469982125,0.00916297856775,-0.23167064145461252
1.584843635559082,0.023928225999999997,-0.47078784655,10.5415799643,0.7228062926860126,0.09101892043965001,-0.2222022302679375
1.5907297134399414,-0.08614161359999999,-0.22133609049999997,10.357930829749998,0.7392996541079625,0.16462818160057502,-0.21731530836513752
1.5969514846801758,-0.025722842949999998,0.0023928226,10.225129175449998,0.7032586050748125,0.19196440099436252,-0.2394591732372
1.603450059890747,-0.10648060570000001,0.22552353004999998,9.81834933345,0.61147610308785,0.18142697564145002,-0.2243402586004125
1.610231637954712,-0.63828542855,0.33439695834999994,9.5868437469,0.542142898591875,0.17440202540617503,-0.1656971957668125
1.6162745952606201,-1.0504491214,0.4851447821499999,9.5653083435,0.4659374601700875,0.162184720649175,-0.055894169263275
1.6221528053283691,-1.184447187,0.34576286570000003,9.553942436149999,0.3987422840065875,0.14233160041905002,0.0523816941456375
1.6283063888549805,-1.1389835575999998,0.10169496049999999,9.317651204399999,0.3480404692650375,0.09865473591277502,0.16004669231670002
1.6349942684173584,-1.0289137179999999,-0.0370887503,9.38524844285,0.33948835593513754,0.060170225928225005,0.2014328121810375
1.6412792205810547,-0.97328059255,-0.07956135144999998,9.458827737799998,0.3663664264005375,0.013744467851625001,0.1979203370634
1.647235631942749,-0.7405785947,-0.1782652837,9.56829937175,0.40973785828788756,-0.0423024177211125,0.14935655065432502
1.6530933380126953,-0.4791627256499999,-0.36311082955,9.72383284075,0.4445571768453375,-0.10262535995880001,0.062460970570162505
1.6592071056365967,-0.49531427819999996,-0.48574298779999997,9.63170917065,0.4900666370651625,-0.1392772742298,-0.012217304757000001
1.6656219959259033,-0.36251262389999994,-0.5982056499999999,9.6753781831,0.5282457144307875,-0.14355333089475003,-0.057726764976825
1.6728129386901855,-0.24526431649999997,-0.48634119344999993,9.691529735649999,0.5453499410905875,-0.1394299905392625,-0.0771217362785625
1.6787476539611816,-0.2787638329,-0.48035913694999993,9.705886671250001,0.5566509479908126,-0.1122464874549375,-0.08765916163147501
1.6846299171447754,-0.06101697629999999,-0.57607204095,9.643075077999999,0.549473281446075,-0.062308254260700004,-0.0936150977005125
1.6906042098999023,0.08434699664999999,-0.43369909624999997,9.59103118645,0.5308418916916501,0.006872233925812501,-0.088880892107175
1.6971065998077393,0.18305092890000002,-0.18364913454999998,9.4707918508,0.511599636699375,0.0508545310510125,-0.06780604140135
1.7038118839263916,0.06999006104999998,0.04307080679999999,9.44147977395,0.4787656301649375,0.08750644532201252,-0.020005836539587502
1.7097134590148926,-0.07537391189999999,0.05084748024999999,9.438488745699999,0.44180828327501254,0.11927143769021249,0.047952921171225
1.7156250476837158,-0.25064816735,-0.032901310749999996,9.23808985295,0.38316522044141255,0.18341228766446252,0.10690141662375001
1.7215156555175781,-0.40558343069999997,-0.1519442351,9.2267239456,0.3336851361755625,0.229379896812675,0.162184720649175
1.727900505065918,-0.60717873475,-0.2548356069,9.125627190749999,0.2695442862013125,0.24923301704280001,0.1852448833780125
1.7347323894500732,-0.6053841178,-0.44327038664999996,9.0436730167,0.2286163152653625,0.24373522990215002,0.17989981254682502
1.7409520149230957,-0.5228317380999999,-0.47377887479999997,9.183653138799999,0.219606053007075,0.223271244434175,0.18585574861586251
1.7468640804290771,-0.7322037156000001,-0.3553341561,9.133403864199998,0.2228130955057875,0.1831068550455375,0.185397599687475
1.7527008056640625,-0.7471588568499998,-0.3415754261499999,9.240482675549998,0.22815816633697503,0.1356120828027,0.1490511180354
1.758932113647461,-0.64785671895,-0.37986058775,9.15553747325,0.22250766288686252,0.08307767234760001,0.07849618306372501
1.7654695510864258,-0.5252245607,-0.4223331889,9.240482675549998,0.1986839186107125,0.0502436658131625,0.006414084997425001
1.7719130516052246,-0.35892339,-0.46480579005,9.33021352305,0.18707747909156253,0.029474247726262504,-0.039248091531862504
1.7778732776641846,-0.23389840915,-0.55094740365,9.5198447141,0.17440202540617503,0.02504547475185,-0.052687126764562504
1.783752679824829,-0.14177473905,-0.7004988161499999,9.67597638875,0.16920967088445,0.035124751176375,-0.05177082890778751
1.789964199066162,0.14297115034999996,-1.0360921857999998,9.67956562265,0.16264286957756252,0.05894849545252501,-0.0441350134346625
1.796518087387085,0.22671994134999998,-0.9643075077999999,9.576076045199999,0.18692476278210002,0.10919216126568751,-0.019242254992275
1.8029687404632568,0.31226334929999994,-0.80458659925,9.4301138666,0.2084577624163125,0.1624901532681,0.039400807841325006
1.81011962890625,0.46121655614999996,-0.6436692794,9.4217389875,0.23457225133440002,0.2203696345543875,0.1052215372196625
1.816086769104004,0.2895315346,-0.5084748025,9.304490680099999,0.232128790383,0.23793201014257503,0.1290452814958125
1.822274923324585,0.06879364974999999,-0.33499516399999996,9.362516628149999,0.1612684227924,0.2298380457410625,0.146302224465075
1.8287181854248047,-0.47377887479999997,-0.36550365214999997,9.112466666449999,0.16004669231670002,0.20647245039330003,0.1727221460020875
1.8354015350341797,-0.7920242806,-0.5587240770999999,9.2386880586,0.1293507141147375,0.19150625206597502,0.20586158515545003
1.8413283824920654,-0.80817583315,-0.58325050875,9.27757142585,0.11896600507128752,0.1815796919509125,0.23105977621676252
1.8471944332122803,-0.64905313025,-0.6616154488999999,9.3104727366,0.12110403340376251,0.1492038343448625,0.22617285431396253
1.8533406257629395,-0.5862415369999999,-0.6981059935499999,9.4121676971,0.1539380399382,0.09697485650868751,0.19150625206597502
1.8599519729614258,-0.3900300838,-0.861416136,9.510871629349998,0.18356500397392503,0.027794368322175002,0.14233160041905002
1.866222858428955,-0.45164526574999997,-1.10368942425,9.595218626,0.220216918244925,-0.042455134030575,0.0951422607951375
1.872117042541504,-0.40259240244999994,-1.20059873955,9.45822953215,0.26526822953636253,-0.104763388291275,0.0444404460535875
1.8779926300048828,-0.43130627364999996,-1.16709922315,9.1956172518,0.30726521463855,-0.13836097637302502,-0.0270307867748625
1.883997917175293,-0.30089744194999996,-1.0127621654499999,9.00957529465,0.36331210021128757,-0.17928894730897502,-0.1055269698385875
1.8904800415039062,-0.029312076849999997,-0.8745766602999999,8.817551280999998,0.4036292059093875,-0.23793201014257503,-0.19364428039845
1.8972737789154053,-0.11365907349999999,-0.50309095165,8.654241138549999,0.415388361738,-0.28160887464885004,-0.25014931489957504
1.9032232761383057,-0.21236300575,-0.22013967919999997,8.684749626699999,0.387593993415825,-0.2780963995312125,-0.2606867402524875
1.9092323780059814,-0.27457639335,-0.18245272324999998,8.65783037245,0.345444292004175,-0.229379896812675,-0.2301434783599875
1.9153380393981934,0.0526420972,-0.32243284534999994,8.87557722905,0.28787024333681255,-0.1424843167285125,-0.17226399707370002
1.9218568801879883,0.32482566794999995,-0.6221338759999999,9.1357966868,0.23060162728837502,-0.0331394391533625,-0.09224065091535
1.9285345077514648,0.6065805290999999,-0.7854440184499999,9.487541608999999,0.1647808979100375,0.06918048818651251,-0.0013744467851625002
1.9344775676727295,0.5545366375499999,-0.7579265585499999,9.5928258034,0.100487331626325,0.136528380659475,0.093156948772125
1.9409453868865967,0.3332005470499999,-0.92662055185,9.717850784249999,0.0444404460535875,0.211053939677175,0.18234327349822502
1.9476721286773682,-0.04247260115,-1.1383853519499998,9.66640509835,0.035735616414225006,0.23105977621676252,0.2553416694213
1.9549903869628906,-0.34516466005,-1.1569297271,9.6502535458,0.0768163036596375,0.22540927276665002,0.2700024351297
1.962444543838501,-0.48873401604999994,-1.1880364209,9.51685368585,0.1412625862528125,0.1754710395724125,0.252592775850975
1.9691965579986572,-0.5946164160999999,-1.0175478106499998,9.463015177349998,0.2286163152653625,0.12278391280785002,0.1846340181401625
1.976792573928833,-0.4941178668999999,-1.0450652705499999,9.418747959249998,0.30176742749790003,0.059559360690375006,0.09804387067492501
1.9838967323303223,-0.5922235935,-1.0492527101,9.393025116299999,0.33536501557965004,-0.007941248092050001,0.041691552483262506
1.9911627769470215,-0.5700899844499999,-1.2113664412499998,9.2937229784,0.3376557602215875,-0.024434609514000002,0.005803219759575
1.998033046722412,-0.46121655614999996,-1.1222337993999998,9.384650237199999,0.3249803065362,-0.0255036236802375,-0.00916297856775
2.0048487186431885,-0.34277183744999995,-1.016949605,9.4719882621,0.3205515335617875,-0.0261144889180875,-0.02993239665465
2.0117015838623047,-0.12502498085,-1.1748758966,9.62333429155,0.3052799026155375,-0.0502436658131625,-0.0224492974909875
2.018798828125,-0.06101697629999999,-1.3351950108,9.64965534015,0.29688050559510004,-0.0713185165189875,-0.0056505034501125005
2.0265285968780518,-0.22073788485,-1.2604193045499996,9.6059863277,0.29794951976133754,-0.0598647933093,-0.010079276424525
2.0332305431365967,-0.346959277,-1.2837493248999998,9.6574320136,0.297796803451875,-0.0349720348669125,-0.0035124751176375
2.0395307540893555,-0.18484554585,-1.3710873497999998,9.567701166099999,0.308792377733175,-0.0053450708311875,0.0268780704654
2.045799732208252,-0.023330020349999998,-1.2586246875999998,9.624530702849999,0.3587306109274125,0.024129176895075,0.0537561409308
2.052170991897583,0.2524427843,-1.2346964615999998,9.702297437349998,0.4495968150576,0.0401643893886375,0.0581849139052125
2.0588185787200928,0.32482566794999995,-1.1868400096,9.616155823749999,0.5395467213310126,0.03802636105616251,0.0539088572402625
2.0647552013397217,0.18843477974999998,-1.3280165429999997,9.753144917599998,0.584903465241375,0.04459316236305,0.03970624046025
2.0706071853637695,0.0538385085,-1.4500504955999998,9.744770038499999,0.6020076919011751,0.0639881336647875,0.030695978201962505
2.076646089553833,-0.12023933564999999,-1.5481562222,9.627521731099998,0.5876523588117,0.0926987998437375,0.016646077731412502
2.083169460296631,-0.18424734019999997,-1.5912270289999997,9.8010013696,0.5400048702594,0.0939205303194375,0.0061086523785000004
2.089934825897217,-0.4677968183,-1.6007983193999997,9.57428142825,0.48136180742580004,0.09117163674911251,0.018631389754425
2.0958645343780518,-0.5766702466,-1.6097714041500002,9.698708203449998,0.44287729744125004,0.0818559418719,0.0597120769998375
2.1017491817474365,-0.6053841178,-1.5332010809499996,9.619146851999998,0.413861198643375,0.0532979920024125,0.14645494077453752
2.1077816486358643,-0.7860422241,-1.5050854154,9.53719267795,0.41294490078660007,0.024129176895075,0.1649336142195
2.114306926727295,-0.9589236569499999,-1.6642081183,9.53479985535,0.4210388651881125,-0.0062613686879625,0.20937406027308753
2.1214852333068848,-1.0432706536,-1.9824535240999999,9.646664311899999,0.44806965196297505,-0.024892758442387503,0.22235494657740001
2.127424478530884,-0.6388836341999999,-2.13499596485,9.5736832226,0.47968192802171256,-0.018936822373350003,0.16111570648293752
2.13330078125,-0.2727817764,-2.2097716711,9.673583566149999,0.5169447075305625,-0.0316122760587375,0.14492777767991252
2.1392245292663574,0.06161518194999999,-2.1439690496,9.744770038499999,0.5655084939396375,-0.044287729744125,0.096822140199225
2.145716905593872,0.2727817764,-2.08953233545,9.691529735649999,0.6131559824919375,-0.05192354521725,0.072998395923075
2.152458906173706,0.24466611084999998,-1.8765711240499998,9.669396126599999,0.639270471410025,-0.0404698220075625,0.0603229422376875
2.158440113067627,0.20279171534999998,-1.67916325955,9.371489712899999,0.6340781168883001,-0.01649336142195,0.035124751176375
2.1643271446228027,0.0634097989,-1.46739845945,9.4504528587,0.6192646348704375,0.0029016098797875,0.0134390352327
2.1701583862304688,-0.032901310749999996,-1.2687941836499999,9.437890540049999,0.6006332451160125,0.034513885938525,0.020005836539587502
2.176563262939453,-0.215354034,-1.41714918485,9.43549771745,0.5731443094127625,0.0539088572402625,0.0710130839000625
2.1830954551696777,-0.13579268255,-1.57268265385,9.598807859899999,0.5757404866736251,0.045204027600900004,0.1357647991121625
2.189216136932373,0.10588240005,-1.7383856188999998,9.580263484749999,0.6301074928422751,0.054061573549725,0.1867720464726375
2.195211887359619,0.18305092890000002,-2.13738878745,9.483952375099998,0.7173085055453625,0.05070181474155,0.2212859324111625
2.2010657787323,0.0095712904,-2.2313070745,9.66760150965,0.8177958371716875,0.052687126764562504,0.254425371564525
2.2072951793670654,-0.2763710103,-2.3377876802,9.37687356375,0.9036224030896126,0.05528330402542501,0.2883283922652
2.2138493061065674,-0.12083754129999999,-2.42931314465,9.34217763605,0.9508117427135251,0.06169738902285,0.3065016330912375
2.220198154449463,-0.04307080679999999,-2.31326124855,9.2829552767,0.9576839766393376,0.038789942603475,0.28771752702735004
2.226236343383789,-0.0502492746,-2.2271196349499998,9.3810610033,0.9306531898644751,0.0129808863043125,0.23823744276150002
2.232091188430786,-0.13459627124999998,-2.2426729818499997,9.361320216849998,0.8938485592840125,-0.009468411186675001,0.18387043659285
2.238478899002075,-0.038883367249999995,-2.21874475585,9.321240438299998,0.8718574107214125,-0.0206167017774375,0.10690141662375001
2.245694160461426,-0.18125631194999997,-2.2002003806999997,9.40798025755,0.8810203892891626,-0.030848694511425,0.06154467271338751
2.2526488304138184,-0.46839502395,-2.5555345367999998,9.54197832315,0.9181304524885501,-0.07192938175683751,0.0731511122325375
2.259290933609009,-0.6203392590499999,-2.6536402634,9.7423772159,1.0358747270841375,-0.11911872138075001,0.043676864506275004
2.265922784805298,-0.51864429855,-2.95334129405,9.7016992317,1.2412781633112,-0.19043723789973752,-0.0044287729744125
2.2729368209838867,-0.45643091095,-3.12921375515,9.527023181899999,1.466992868696775,-0.26847527203507504,-0.0783434667542625
2.2803614139556885,-0.5024927459999999,-3.0598218997499997,9.45822953215,1.6537649151694127,-0.33903020700675,-0.15622878458013753
2.288339376449585,-0.5377868793499999,-3.1375886342499997,9.290731950149999,1.7328719634709877,-0.37675113544398753,-0.1918116846849
2.2950491905212402,-0.5306084115499999,-3.1375886342499997,9.0879402348,1.7238617012127002,-0.353996405334075,-0.19471329456468753
2.3019039630889893,-0.32841490184999994,-3.17707020715,8.9216390641,1.6432274898165,-0.2768746690555125,-0.16050484124508752
2.3089985847473145,0.14656038424999998,-3.1136604082499995,8.87797005165,1.525025066292525,-0.1815796919509125,-0.070554934971675
2.3165135383605957,0.1471585899,-2.95453770535,9.0233340246,1.5908457956708626,-0.12553280637817502,0.0073303828542000005
2.323131561279297,0.17048861024999998,-2.84566427705,8.99521835905,1.6982053612230001,-0.15470162148551253,0.0157297798746375
2.3297243118286133,-0.33200413574999993,-3.4875389395,9.28953553885,1.8863518544808002,-0.1281289836390375,0.025198191061312502
2.336944580078125,-0.19860427579999998,-3.63051008985,9.035896343249998,2.0512854687003004,-0.11881328876182501,0.032681290224975006
2.343601942062378,-0.22971096959999998,-3.9080775114499993,8.988638096899999,2.157881452705125,-0.146913089702925,0.0450513112914375
2.3499655723571777,-0.5264209719999999,-4.21435880425,8.906683922849998,2.207361536970975,-0.1918116846849,0.07147123282845001
2.355891704559326,-0.5240281494,-4.259224228,8.94137985055,2.1988094236410753,-0.20647245039330003,0.07910704830157501
2.36173415184021,-0.48095734259999995,-4.1246279567499995,8.61954521085,2.1791090197204124,-0.2151772800326625,0.054977871406500005
2.368023157119751,-0.31645078885,-4.1012979364,8.493922024349999,2.1565070059199627,-0.21838432253137502,-0.00061086523785
2.3747148513793945,-0.1471585899,-4.1060835816,8.644071642499998,2.138333765093925,-0.23105977621676252,-0.059559360690375006
2.381213665008545,-0.13579268255,-4.286741687899999,8.49033279045,2.0780108228562377,-0.23457225133440002,-0.0940732466289
2.3871307373046875,-0.4223331889,-4.4530428586,8.376075511299998,1.9413297258873,-0.211053939677175,-0.12217304757000001
2.3929712772369385,-0.66819571105,-4.504488544499999,8.4562350684,1.7006488221744,-0.15897767815046251,-0.156686933508525
2.3990209102630615,-0.9523433947999999,-4.6755753604,8.36590601525,1.445001720134175,-0.11407908316848751,-0.17883079838058752
2.405460834503174,-0.6317051664,-4.843671148049999,8.13260581175,1.1977540151143877,-0.049021935337462505,-0.1678352240992875
2.41174578666687,-0.18963119104999998,-4.4721854394,8.133204017399999,1.0780244284957876,-0.0019853120230125003,-0.08399397020437502
2.417689561843872,0.037686955949999996,-4.450650035999999,8.159525065999999,1.0404562163680124,0.0154243472557125,0.0203112691585125
2.4236130714416504,-0.01615155255,-4.39382049925,8.140382485199998,1.0483974644600627,-0.0030543261892500002,0.1482875364880875
2.429668664932251,-0.2907279459,-4.514059834899999,7.98784004445,1.0955868040839751,0.005955936069037501,0.2247984075288
2.4360299110412598,-0.5132604477,-4.814359071199999,7.9226356286,1.1615602497717752,0.035735616414225006,0.246484123472475
2.442453145980835,-0.7004988161499999,-5.109274456649999,8.0255270004,1.2136365112984877,0.036346481652075,0.24342979728322503
2.4486279487609863,-0.9672985360499999,-5.5501520207,7.974081314499999,1.27121055996585,0.0134390352327,0.23350323716816251
2.4546985626220703,-0.9930213789999999,-5.8660046039,8.00219698005,1.3516920550525875,0.0032070424987125003,0.2222022302679375
2.4606881141662598,-0.8267202082999998,-6.0801622266,8.249255913499999,1.4636331098886002,-0.004734205593337501,0.20326540789458752
2.466980457305908,-0.92662055185,-6.0586268232,8.0602229281,1.6106989159009877,-0.012217304757000001,0.1174388419766625
2.4736335277557373,-0.80339018795,-5.805585833249999,7.9621172015,1.7423403746576627,-0.0316122760587375,0.022754730109912503
2.4797725677490234,-0.7100701065499999,-5.795416337199999,7.944769237649999,1.7710510408366127,-0.094378679247825,-0.0940732466289
2.4856772422790527,-0.7477570625,-5.99222599605,7.902894842149999,1.7023287015784876,-0.14034628839603752,-0.2231185281247125
2.4915647506713867,-0.6065805290999999,-6.064010674049999,8.017750326949999,1.5716035406785878,-0.1656971957668125,-0.2671008252499125
2.498020887374878,-0.18305092890000002,-5.89531668075,8.109873997049998,1.4555391454870876,-0.1815796919509125,-0.259923158705175
2.5048201084136963,-0.029910282499999996,-5.7343993608999995,7.994420306599999,1.3779592602801374,-0.2125811027718,-0.1962404576593125
2.510801315307617,-0.17647066675,-5.7332029496,7.9130643382,1.3286318923237501,-0.21349740062857503,-0.14492777767991252
2.5167236328125,-0.46719861264999996,-5.7768719620499995,7.5026952623,1.2713632762753124,-0.18906279111457502,-0.0963639912708375
2.522576332092285,-0.65144595285,-5.7714881112,7.400402096149999,1.2179125679634375,-0.1415680188717375,-0.05925392807145
2.528820037841797,-0.77706913935,-5.66440929985,6.975077879,1.146899484063375,-0.08964447365448751,-0.018478673444962502
2.535417079925537,-1.0815558152,-5.733801155249998,7.005586367149999,1.0451904219613501,-0.06902777187705,0.027183503084325
2.541916847229004,-1.2197413203499998,-6.012564988149999,7.206583465549999,0.9326385018874876,-0.0566577508105875,0.04398229712520001
2.547978639602661,-1.1258230332999999,-6.515655939799999,7.32861741815,0.8744535879822751,-0.048869219028000004,0.043065999268425005
2.5538251399993896,-0.8865407732999999,-6.860222394199999,7.315456893849999,0.9199630482021001,-0.051007247360475,0.028252517250562503
2.560028076171875,-0.47856451999999994,-7.2011996147,7.441678286,1.0795515915904126,-0.03481931855745,-0.0132863189232375
2.5666658878326416,-0.34097722049999996,-7.271787881399999,7.351947438499999,1.3069461763800752,-0.011911872138075002,-0.0639881336647875
2.573089122772217,-0.40019957984999993,-7.226922457650001,7.356134878049999,1.5239560521262876,-0.007941248092050001,-0.08261952341921251
2.5790867805480957,-0.5168496816,-7.1521467514,7.3028945752,1.6600262838573752,-0.005955936069037501,-0.09850201960331251
2.5849459171295166,-0.6927221427,-7.1413790496999985,7.1521467514,1.7066047582434376,0.029626964035725,-0.10231992733987501
2.591796398162842,-0.5108676251,-6.742375881149999,7.03071100445,1.544572753903725,0.030543261892500003,-0.12308934542677502
2.598581314086914,-0.7357929495,-6.4079789228,6.781857454049999,1.3720033242111003,-0.0036651914271000003,-0.18280142242661251
2.604966640472412,-0.8548358738499999,-6.017948839,6.621538339849999,1.183551398334375,-0.007941248092050001,-0.219606053007075
2.610856533050537,-0.9230313179499999,-5.84626381745,6.648457594099999,0.9555459483068626,-0.020005836539587502,-0.161573855411325
2.6167526245117188,-0.9714859755999999,-5.9078789994,6.5455662223,0.791986780872525,-0.045356743910362506,-0.116369827810425
2.6228997707366943,-1.0947163395,-5.827121236649999,6.6364934811000005,0.6203336490366751,-0.0658207293783375,-0.039400807841325006
2.6293818950653076,-1.14436740845,-6.042475270649999,6.692724812199999,0.4967861546815125,-0.070554934971675,-0.0181732408260375
2.6356732845306396,-0.8745766602999999,-6.270391623299999,6.3541404143,0.40653081578917505,-0.037110063199387505,-0.024129176895075
2.6415956020355225,-0.48933222169999996,-6.475576161249999,6.201597973549998,0.3404046537919125,0.0038179077365625004,0.0030543261892500002
2.6474645137786865,-0.26919254249999996,-6.575476504799999,6.514459528499999,0.30298915797360004,0.0134390352327,0.06505714783102501
2.653585910797119,-0.29252256285,-6.628118602,6.453442552199999,0.29382617940585,0.03955352415078751,0.129197997805275
2.6600735187530518,-0.47736810869999996,-6.801598240499999,6.4319071488,0.26343563382281254,0.0720820980663,0.18264870611715003
2.6667492389678955,-0.5988038556499999,-7.0773710451500005,6.345167329549999,0.2182316062219125,0.09224065091535,0.2115120886055625
2.6726415157318115,-0.81655071225,-7.256234534499999,6.29850728885,0.20021108170533752,0.0989601685317,0.211664804915025
2.678539752960205,-0.87158563205,-7.2478596554,6.39661301545,0.22403482598148752,0.112093771145475,0.18555031599693753
2.684584379196167,-1.0205388389,-7.4524459877,6.3601224707999995,0.27183503084325,0.11026117543192501,0.15622878458013753
2.691103935241699,-0.83449688175,-7.52722169395,6.412764567999999,0.2988658176181125,0.0794124809205,0.11041389174138751
2.6977899074554443,-0.9332008139999999,-7.32024253905,6.6209401342,0.3153591790400625,0.0499382331942375,0.06811147402027501
2.703701972961426,-1.1353943237,-7.158128807899999,6.7322063851000005,0.33536501557965004,0.033903020700675,0.0187841060638875
2.709594964981079,-1.0863414604,-7.23051169155,6.6723858201,0.35384368902461255,0.0206167017774375,-0.019242254992275
2.71553373336792,-0.8985048862999999,-7.393821834000001,6.690930195249999,0.36865717104247503,-0.003359758808175,-0.0584903465241375
2.7218165397644043,-1.0175478106499998,-7.5804619967999995,6.57487829915,0.36972618520871253,-0.0212275670152875,-0.0713185165189875
2.728311777114868,-0.9954142015999999,-7.5984081663,6.521637996299998,0.35445455426246253,-0.040775254626487505,-0.072998395923075
2.7344515323638916,-0.849452023,-7.2729842926999995,6.3242301317999985,0.3410155190297625,-0.031764992368200004,-0.0813977929435125
2.7406487464904785,-0.7345965381999999,-7.1617180418,6.319444486599999,0.32620203701190004,-0.031764992368200004,-0.0810923603245875
2.74729323387146,-0.6131607912499999,-6.924230398749999,6.2021961791999995,0.2625193359660375,-0.016187928803025,-0.06139195640392501
2.7543489933013916,-0.60598232345,-6.795616184,6.266802389399999,0.1824959898076875,0.013744467851625001,-0.020463985467975
2.7617950439453125,-0.7274180704000001,-6.784250276649998,6.259025715949998,0.06047565854715,0.063835417355325,0.0468839070049875
2.7688634395599365,-0.64307107375,-6.872784712849999,6.32482833745,-0.0685696229486625,0.0939205303194375,0.11056660805085002
2.7755424976348877,-0.62392849295,-6.9332034835,6.35593503125,-0.1351539338743125,0.1232420617362375,0.153021742081425
2.7823500633239746,-0.68614188055,-6.9367927173999995,6.38704172505,-0.1669189262425125,0.13973542315818752,0.19730947182555003
2.7896203994750977,-0.7734799054499999,-7.17428036045,6.382854285500001,-0.200669230633725,0.12278391280785002,0.27336219393787503
2.796802520751953,-0.8099704500999999,-7.5870422589499995,6.4654066652,-0.19883663492017503,0.0978911543654625,0.2860376476232625
2.8034112453460693,-0.8638089586000001,-7.795816030799999,6.4115681567,-0.15409075624766252,0.06139195640392501,0.22082778348277501
2.8101134300231934,-0.96370930215,-7.886743289599999,6.3912291645999995,-0.07849618306372501,0.016798794040875,0.132252323994525
2.81714129447937,-0.9876375281499999,-7.8053873212,6.4002022493499995,0.017867808207112503,-0.02626720522755,0.0145080493989375
2.8245720863342285,-1.00678010895,-7.51406116965,6.218945937399999,0.0697913534243625,-0.0545197224781125,-0.0652098641404875
2.8317723274230957,-0.9457631326499999,-7.169494715249999,6.226124405199999,0.0077885317825875005,-0.065668013068875,-0.08124507663405
2.8387258052825928,-0.9164510557999999,-6.848258281199999,6.23150825605,-0.0273362193937875,-0.062613686879625,-0.0636827010458625
2.8449623584747314,-0.7118647235,-6.742974086799999,6.284150353249999,-0.1446223450609875,-0.042913282958962504,-0.030543261892500003
2.8513104915618896,-0.41156548719999997,-6.70289430825,6.45523716915,-0.232128790383,0.0007635815473125001,0.010079276424525
2.8582420349121094,-0.22671994134999998,-6.7519471715499995,6.430112531849999,-0.29382617940585,0.0354301837953,0.0708603675906
2.8642261028289795,-0.13938191645,-6.91824834225,6.661618118399999,-0.3651446959248375,0.04780020486176251,0.142026167800125
2.8701183795928955,-0.27936203854999997,-6.88594523715,6.644868360199999,-0.4100432909068125,0.0659734456878,0.2130392517001875
2.8759517669677734,-0.44446679795,-6.758527433699999,6.595217291249999,-0.43447790042081247,0.1043052393628875,0.2762638038176625
2.882274866104126,-0.43848474145,-6.454638963499999,6.4911295081499985,-0.4851797151623625,0.129197997805275,0.322842278203725
2.8888914585113525,-0.65024954155,-6.564708803099999,6.43848741095,-0.5823072879805126,0.12278391280785002,0.36163222080720003
2.8950464725494385,-0.9182456727499999,-6.5276200528,6.42293406405,-0.7379252073228,0.1036943741250375,0.3897320217483
2.9017982482910156,-1.3166506356499998,-6.473781544299999,6.41575559625,-0.8135197805067376,0.08307767234760001,0.36346481652075
2.907716751098633,-1.5720844482,-6.504290032449999,6.32722116005,-0.9248499701049,0.0684169066392,0.30237829273575006
2.913935661315918,-1.5332010809499996,-6.746563320699999,6.34277450695,-1.030224223634025,0.0423024177211125,0.22250766288686252
2.9204297065734863,-1.3722837611,-6.913462697049999,6.42173765275,-1.0838276482553626,0.022296581181525,0.1531744583908875
2.9267396926879883,-0.95174518915,-6.991827637199999,6.611368843799999,-1.0702358967132002,0.0154243472557125,0.14233160041905002
2.932638168334961,-0.6783652070999998,-7.087540541199999,6.67059120315,-1.0164797557824001,0.0273362193937875,0.1672243588614375
2.9386351108551025,-0.3296113131499999,-7.183851650849999,6.799803623549999,-0.9662360899692376,0.053603424621337506,0.201890961109425
2.9453554153442383,-0.10289137179999999,-6.8656062450499995,7.0552374361,-0.9002626442814375,0.04184426879272501,0.2005165143242625
2.9527370929718018,-0.04905286329999999,-6.3266229543999986,7.3208407447,-0.7939720928955375,0.06307183580801251,0.1727221460020875
2.959939479827881,-0.41694933804999995,-6.66700196925,7.3016981639,-0.8466592196601,0.0978911543654625,0.1730275786210125
2.9666128158569336,-0.59760744435,-6.71246559865,7.1282185253999995,-0.9265298495089875,0.12492194114032501,0.1476766712502375
2.9733011722564697,-0.6245266985999999,-6.732804590749999,7.071388988649999,-1.0135781459026125,0.14034628839603752,0.104152523053425
2.980525016784668,-0.4911268386499999,-6.4803618064499995,7.0755764282,-1.0812314709945,0.1446223450609875,0.0682641903297375
2.987755537033081,-0.26620151425,-6.302096522749999,7.0193450970999995,-1.13926366859025,0.171958564454775,0.1253800900687125
2.994835376739502,-0.20159530404999998,-6.04726091585,7.1461646948999995,-1.19424153999675,0.1656971957668125,0.2448042440683875
3.0015382766723633,-0.33200413574999993,-6.0574304119,7.2825555831,-1.2793045243673626,0.1330159055418375,0.36606099378161255
3.0084476470947266,-0.8207381517999999,-6.250650836849999,7.48295447585,-1.44103109608815,0.0694859208054375,0.4393648223236125
3.015585422515869,-1.1611171666499998,-6.33679245045,7.290930462199999,-1.5832099801977375,0.027183503084325,0.4045455037661625
3.022580623626709,-1.0384850084,-6.2105710583,7.274180703999999,-1.715004155263875,-0.029321531416800002,0.3263547533213625
3.029278516769409,-0.8309076478499999,-6.0741801701,7.304090986499999,-1.787697118568025,-0.08384125389491251,0.2579378466821625
3.0358693599700928,-0.5276173833,-5.9760744435,7.432705201249999,-1.7774651258340377,-0.1171334093577375,0.21548271265158753
3.042708396911621,-0.107677017,-5.737988594799999,7.645068206999999,-1.7496707575118626,-0.11530081364418751,0.17012596874122501
3.049125909805298,0.06101697629999999,-5.661418271599999,8.240282828749999,-1.6823228650389002,-0.09834930329385001,0.1660026283857375
3.0557901859283447,-0.1363908882,-5.486742221799999,8.04287496425,-1.5496123921159877,-0.057115899738975004,0.17883079838058752
3.061678409576416,-0.20398812665,-5.47059066925,8.2061851067,-1.4966198327325002,-0.0019853120230125003,0.16203200433971252
3.0675208568573,-0.215354034,-5.46460861275,8.140382485199998,-1.5068518254664875,0.029474247726262504,0.1123992037644
3.0738723278045654,-0.2703889538,-5.354538773149999,7.9698938749499995,-1.5486960942592127,0.04703662331445,0.07910704830157501
3.0806946754455566,-0.50787659685,-5.03270413345,8.00698262525,-1.5888604836478502,0.054672438787575,0.07040221866221251
3.0871193408966064,-0.78664042975,-4.856233466699999,8.0015987744,-1.6389514331515502,0.0667370272351125,0.08979718996395
3.0931403636932373,-0.77228349415,-4.70847667115,7.993223895299999,-1.6806429856348124,0.0649044315215625,0.1174388419766625
3.099071502685547,-0.84765740605,-4.7928236678,8.1080793801,-1.7379116016832499,0.0728456796136125,0.1840231529023125
3.1053152084350586,-1.0492527101,-5.159523731249999,8.3258262367,-1.8333592950973128,0.085521133299,0.2454151093062375
3.111809730529785,-0.9631110964999998,-5.1888358081,8.6093757148,-1.9828685620611002,0.08261952341921251,0.2857322150043375
3.1182520389556885,-0.5653043392499999,-5.2390850827,8.8558364426,-2.0230329514497374,0.0636827010458625,0.29596420773832505
3.1242892742156982,-0.24825534474999997,-5.13439909395,8.91505880195,-2.0309741995417876,0.0270307867748625,0.29764408714241253
3.1301872730255127,-0.19860427579999998,-5.13080986005,9.010771705949999,-1.9804251011097,-0.0056505034501125005,0.2881756759557375
3.1364712715148926,-0.19022939669999997,-5.0955157266999995,9.146564388499998,-1.8193093946267627,-0.0349720348669125,0.25610525096861253
3.143099069595337,-0.14895320685,-4.917848648649999,9.1381895094,-1.7044667299109626,-0.058795779143062506,0.1299615793525875
3.1495919227600098,-0.09810572659999998,-4.70608384855,9.16750158625,-1.6073391570928126,-0.0926987998437375,0.0708603675906
3.155512809753418,-0.31884361145,-4.4279182213,9.032905314999999,-1.5126550452260625,-0.10537425352912501,-0.00916297856775
3.1614203453063965,-0.32841490184999994,-4.1886359613,8.80259613975,-1.4375186209705126,-0.0963639912708375,-0.0597120769998375
3.167543411254883,-0.40319060809999996,-3.8632120877,8.4693955927,-1.357647991121625,-0.0598647933093,-0.046731190695525004
3.173893451690674,-0.4235296002,-3.4983066411999997,8.3222370028,-1.2718214252037001,-0.013744467851625001,0.006872233925812501
3.180311918258667,-0.4331008906,-3.0478577867500003,8.4251283746,-1.1968377172576126,0.033903020700675,0.06734789247296251
3.1862967014312744,-0.59521462175,-2.880360204749999,8.6165541826,-1.1453723209687499,0.07116580020952501,0.0939205303194375
3.192162275314331,-0.7184449856499999,-2.9180471606999996,8.723034788299998,-1.1351403282347625,0.0817032255624375,0.11087204066977502
3.198276996612549,-0.77108708285,-3.2853454297999996,8.892326987249998,-1.1705705120300627,0.0801760624678125,0.13072516089990002
3.204676866531372,-0.5240281494,-3.75732968765,8.84805976915,-1.2510520071168,0.0581849139052125,0.1734857275494
3.2121176719665527,-0.040677984199999996,-3.7788650910499997,9.18425134445,-1.3067934600706124,0.0172569429692625,0.220216918244925
3.2180306911468506,0.0,-3.63170650115,9.3415794304,-1.3434453743416126,0.0083993970204375,0.2695442862013125
3.2238752841949463,-0.01734796385,-3.5503505327499996,9.371489712899999,-1.3663528207609876,0.0187841060638875,0.2799289952447625
3.229891538619995,-0.06400800455,-3.48095867735,9.482755963799999,-1.370476161116475,0.0352774674858375,0.24908030073333753
3.2363338470458984,-0.05682953674999999,-3.3750762772999994,9.4983093107,-1.3449725374362376,0.053450708311875005,0.20586158515545003
3.2430737018585205,-0.17766707805,-3.0634111336499994,9.21655444955,-1.259909553065625,0.091935218296425,0.1795943799279
3.249011278152466,-0.1746760498,-3.00717980255,8.97129013305,-1.1487320797769252,0.1282816999485,0.160352124935625
3.254958391189575,-0.18544375149999998,-2.9156543381,8.857032853899998,-0.982576735081725,0.14584407553668752,0.1385136926824875
3.260971784591675,-0.38045879339999994,-2.79182576855,8.880362874249998,-0.8177958371716875,0.1290452814958125,0.0835358212759875
3.267503261566162,-0.5258227663499999,-2.5375883672999997,9.080761767,-0.6872233925812501,0.09453139555728751,0.037720928437237504
3.274343490600586,-0.61914284775,-2.3030917525,9.13280565855,-0.6120869683257,0.052228977836175,0.031459559749275
3.280289649963379,-0.50548377425,-2.34317153105,9.03350352065,-0.6171266065379625,-0.0053450708311875,0.05925392807145
3.2862207889556885,-0.40558343069999997,-2.48793729835,9.1322074529,-0.6882924067474875,-0.0685696229486625,0.08048149508673749
3.2920966148376465,-0.65144595285,-2.56570403285,9.099306142149999,-0.8089382912228625,-0.11881328876182501,0.0813977929435125
3.2984554767608643,-0.6376872229,-2.6380869164999994,9.22851856255,-0.864679744176675,-0.1455386429177625,0.0810923603245875
3.304919481277466,-0.7046862557,-2.6159533074499994,9.2697947524,-0.8874344742865875,-0.1577559476747625,0.07635815473125
3.311126708984375,-0.45463629399999994,-2.5040888509,9.33021352305,-0.8723155596498,-0.17730363528596252,0.05894849545252501
3.3170289993286133,-0.2739781877,-2.43768802375,9.34337404735,-0.7907650503968251,-0.17318029493047501,0.04214970141165
3.322901725769043,-0.09092725880000001,-2.2277178405999996,9.518648302799999,-0.7655668593355125,-0.1516472952962625,0.05192354521725
3.3291964530944824,-0.13818550515,-2.24745862705,9.71665437295,-0.6951646406733001,-0.13271047292291252,0.0708603675906
3.3357961177825928,-0.23449661479999998,-2.23549451405,9.6454679006,-0.6530149392616501,-0.0890336084166375,0.0652098641404875
3.3419723510742188,-0.26321048599999997,-2.1912272959499997,9.5042913672,-0.636827010458625,-0.06688974354457501,0.038789942603475
3.347914695739746,-0.23330020349999997,-2.19840576375,9.634101993249999,-0.6293439112949626,-0.060933807475537505,0.0
3.3537676334381104,-0.34815568830000004,-2.24147657055,9.5509514079,-0.6157521597528,-0.0584903465241375,-0.022907446419375
3.3599860668182373,-0.47138605219999996,-2.3186450994,9.540781911849999,-0.598647933093,-0.054672438787575,-0.031764992368200004
3.3665690422058105,-0.5072783912,-2.3425733254,9.40080178975,-0.602618557139025,-0.049021935337462505,-0.0444404460535875
3.3727853298187256,-0.32303105099999996,-2.33718947455,9.4612205604,-0.6507241946197125,-0.0603229422376875,-0.057115899738975004
3.3786909580230713,-0.14117653339999997,-2.2097716711,9.598209654249999,-0.688139690438025,-0.087048296393625,-0.0807869277056625
3.3845911026000977,0.00418743955,-1.9106688460999999,9.500103927649999,-0.719904682806225,-0.1258382389971,-0.0780380341353375
3.3907296657562256,-0.25423740125,-1.6528422109499998,9.375078946799999,-0.7333437180389251,-0.1360702317310875,-0.045356743910362506
3.3972084522247314,-0.33678978094999995,-1.56789700865,9.335597373899999,-0.7252497536374125,-0.12553280637817502,0.0035124751176375
3.403697967529297,-0.65982083195,-1.7946169499999998,9.511469835,-0.7304421081591376,-0.08659014746523751,0.029321531416800002
3.4095919132232666,-1.0241280728,-2.0063817501,9.530014210149998,-0.7428121292256,-0.0352774674858375,0.0447458786725125
3.415459156036377,-1.0360921857999998,-2.0955143919499997,9.5772724565,-0.7420485476782875,-0.00916297856775,0.0484110700996125
3.421466112136841,-0.9690931529999999,-2.10867491625,9.699904614749999,-0.7060074986451375,-0.016187928803025,0.0160352124935625
3.4279327392578125,-0.7752745223999999,-1.91246346305,9.56829937175,-0.6305656417706625,-0.056505034501125005,-0.018478673444962502
3.4346790313720703,-0.4971088951499999,-1.6731812030499997,9.583254513,-0.5283984307402501,-0.1001818990074,-0.0085521133299
3.440582275390625,-0.32482566794999995,-1.5337992865999999,9.61854864635,-0.40622538317025003,-0.1076649981710625,0.0145080493989375
3.4469313621520996,-0.07477570624999999,-1.3890335192999999,9.646664311899999,-0.29458976095316247,-0.1543961888665875,0.04337143188735
3.4537391662597656,0.08195417405,-1.2071790017,9.457033120849998,-0.2174680246746,-0.14004085577711253,0.067500608782425
3.4609336853027344,-0.022133609050000003,-1.208375413,9.3762753581,-0.217773457293525,-0.1629483021964875,0.0878118779409375
3.4681472778320312,-0.17647066675,-1.2586246875999998,9.269196546749999,-0.28527406607595,-0.1647808979100375,0.0597120769998375
3.4749200344085693,-0.27936203854999997,-1.3663017045999997,9.32064223265,-0.3657555611626875,-0.16355916743433752,0.0462730417671375
3.481518030166626,-0.34217363179999993,-1.33938245035,9.30269606315,-0.409585141978425,-0.15943582707885,0.043676864506275004
3.488419771194458,-0.48454657649999994,-1.47218410465,9.3762753581,-0.4134030497149875,-0.14599679184615,0.04566217652928751
3.4956107139587402,-0.5539384318999999,-1.5571293069499996,9.387043059799998,-0.3688098873519375,-0.09941831746008752,0.058337630214675
3.5025551319122314,-0.5108676251,-1.5445669883,9.610771972899999,-0.30039298071273757,-0.0566577508105875,0.09972375007901249
3.509218215942383,-0.4223331889,-1.3639088819999998,9.772287498399999,-0.22204951395847503,-0.0013744467851625002,0.1551597704139
3.516895294189453,-0.5000999234,-1.3908281362499997,9.73101130855,-0.1656971957668125,-0.029321531416800002,0.17409659278725
3.523777723312378,-0.5204389155,-1.36809632155,9.75374312325,-0.12186761495107501,-0.005803219759575,0.1685988056466
3.530946731567383,-0.4779663143499999,-1.4590235803499998,9.810572659999998,-0.10567968614805001,0.010690141662375,0.1675297914803625
3.53859543800354,-0.64785671895,-1.4883356572,9.7842516114,-0.09834930329385001,0.0328340065344375,0.15561791934228753
3.5454163551330566,-0.7513462964,-1.5020943871499999,9.676574594399998,-0.0951422607951375,0.0505490984320875,0.12675453685387503
3.551297426223755,-0.61675002515,-1.4883356572,9.7651090306,-0.0829249560381375,0.054977871406500005,0.0933096650815875
3.557290554046631,-0.6496513358999999,-1.4757733385499998,9.72861848595,-0.058643062833600004,0.04214970141165,0.072998395923075
3.563599109649658,-0.6448656906999999,-1.4081761001,9.731609514199999,-0.0303905455830375,0.0183259571355,0.031764992368200004
3.570223093032837,-0.5653043392499999,-1.20059873955,9.625128908499999,-0.026419921537012503,-0.0105374253529125,-0.00045814892838750003
3.576350450515747,-0.6203392590499999,-1.1138589202999998,9.362516628149999,-0.07757988520695,-0.037873644746700005,-0.0145080493989375
3.5823073387145996,-0.64426748505,-1.13599252935,9.3966143502,-0.0502436658131625,-0.03802636105616251,-0.0041233403554875
3.5882110595703125,-0.44626141489999993,-1.08574325475,9.5066841898,-0.05894849545252501,-0.026572637846475,0.018936822373350003
3.5947232246398926,-0.4193421606499999,-1.0528419439999999,9.4492564474,-0.057268616048437505,-0.026725354155937502,0.0835358212759875
3.601475477218628,-0.5108676251,-1.08574325475,9.4169533423,-0.060170225928225005,-0.031764992368200004,0.11453723209687501
3.607456922531128,-0.5467599640999999,-1.1682956344499997,9.3020978575,-0.07177666544737502,-0.037873644746700005,0.10705413293321252
3.6133370399475098,-0.4283152454,-1.2053843847499999,9.42712283835,-0.08659014746523751,-0.0444404460535875,0.0859792822273875
3.61918568611145,-0.39481572899999995,-1.2556336593499997,9.567701166099999,-0.08307767234760001,-0.03955352415078751,0.0658207293783375
3.6254255771636963,-0.33619157529999993,-1.3686945271999997,9.6634140701,-0.073303828542,-0.0148134820178625,0.0806342113962
3.631865978240967,-0.25124637299999997,-1.43569356,9.799206752649999,-0.0450513112914375,0.0169515103503375,0.0902553388923375
3.6383633613586426,-0.28055844984999995,-1.4165509792000002,9.830313446449999,-0.0447458786725125,0.0328340065344375,0.07773260151641251
3.6442887783050537,-0.36370903520000003,-1.3435698898999997,9.629914553699999,-0.047647488552300006,0.041538836173800005,0.0462730417671375
3.650787591934204,-0.37268211995,-1.09770736775,9.521041125399998,-0.0542142898591875,0.0361937653426125,0.0099265601150625
3.6578733921051025,-0.39900316855,-0.83210405915,9.39003408805,-0.07635815473125,0.02138028332475,-0.05742133235790001
3.6652143001556396,-0.43130627364999996,-0.8452645834499999,9.33380275695,-0.1339322033986125,-0.0001527163094625,-0.108428579718375
3.6721417903900146,-0.4821537538999999,-0.92781696315,9.2973122123,-0.19150625206597502,-0.034513885938525,-0.07116580020952501
3.678844690322876,-0.7184449856499999,-0.9726823868999999,9.451051064349999,-0.244040662521075,-0.0789543319921125,0.029321531416800002
3.685612916946411,-0.9607182738999999,-1.0432706536,9.3236332609,-0.31948251939555006,-0.1256855226876375,0.1284344162579625
3.693063497543335,-0.9332008139999999,-1.2059825903999999,9.2398844699,-0.41493021280961256,-0.185397599687475,0.1660026283857375
3.7005178928375244,-0.8458627891,-1.15274228755,9.294919389699999,-0.49907689932345,-0.246484123472475,0.153021742081425
3.7071917057037354,-0.8063812161999999,-0.8823533337499999,9.308678119649999,-0.56260688405985,-0.278249115840675,0.11301006900225001
3.713793992996216,-0.7046862557,-0.5868397426499999,9.21655444955,-0.6421720812898125,-0.3254384554645875,0.063224552117475
3.720766067504883,-0.5934200048,-0.5503491979999999,9.3571327773,-0.7997753126551126,-0.36789358949516254,-0.0288633824884125
3.7280635833740234,-0.5491527867,-0.6281159325,9.3667040677,-0.9967793518617376,-0.34956763235966254,-0.100487331626325
3.7352774143218994,-0.4677968183,-0.46121655614999996,9.34337404735,-1.1522445548945626,-0.23732114490472503,-0.105985118766975
3.741948366165161,-0.5706881900999999,-0.28055844984999995,9.53240703275,-1.313665693996425,-0.15332717470034998,-0.060170225928225005
3.7484054565429688,-0.9337990196499999,-0.31944181709999997,9.5545406418,-1.4979942795176626,-0.05925392807145,-0.018020524516575
3.754826068878174,-1.2622139215000001,-0.41515472109999996,9.552746024849998,-1.7056884603866624,0.057115899738975004,-0.0464257580766
3.7613847255706787,-1.4195420074499998,-0.23509482044999996,9.7782695549,-1.9165896837543752,0.131030593518825,-0.1528690257719625
3.767517566680908,-1.1449656141,0.11545369045,9.8189475391,-2.0955731984444252,0.1733330112399375,-0.3022255764262875
3.7734196186065674,-0.7920242806,0.55094740365,9.8440721764,-2.176818275078475,0.1539380399382,-0.379041880085925
3.779341697692871,-0.52701917765,0.6538387754499999,9.94756175385,-2.14963477199415,0.08124507663405,-0.3975205535308875
3.7857120037078857,-0.43369909624999997,0.5826523030999999,9.64008404975,-2.0321959300174877,-0.037873644746700005,-0.3196352357050125
3.7922446727752686,-0.5084748025,0.2883351233,9.48096134685,-1.8990273081661875,-0.1624901532681,-0.20784689717846253
3.798351287841797,-0.72083780825,0.0029910282499999996,9.18305493315,-1.8241963165295627,-0.20677788301222502,-0.11133018959816252
3.8042709827423096,-0.7639086150499999,0.32303105099999996,9.27398219195,-1.8101464160590126,-0.19394971301737501,-0.0471893396239125
3.810127019882202,-0.9607182738999999,1.12881406155,9.4624169717,-1.8866572870997251,-0.1922698336132875,-0.04703662331445
3.8163442611694336,-1.11565353725,1.6893327556,9.3571327773,-2.0908389928510878,-0.2206750671733125,-0.09926560115062501
3.822819948196411,-0.9750752094999998,1.5702898312499998,9.27876783715,-2.3780983709500503,-0.2431243646643,-0.18753562801995
3.8297886848449707,-0.5629115166499999,1.09292172255,9.37328432985,-2.6772696211870874,-0.2273945847896625,-0.2191479040786875
3.8357393741607666,-0.44985064880000003,1.19342027175,9.6167540294,-2.903137042882125,-0.1062905513859,-0.18295413873607502
3.8416361808776855,-0.40677984199999995,1.5583257182499999,9.8201439504,-3.1036535572063877,0.0279470846316375,-0.1085812960278375
3.8480565547943115,-0.4019941968,1.8909280596499998,9.94397251995,-3.2412509520321,0.1821905571887625,-0.006872233925812501
3.8553085327148438,-0.17168502154999998,1.9920248145,10.0510513313,-3.2785137315409503,0.2182316062219125,-0.007024950235275
3.862304449081421,-0.06879364974999999,1.9112670517499997,9.825527801249999,-3.1916181514567876,0.17928894730897502,0.010995574281300002
3.868943452835083,-0.08793623055000001,2.21754834455,9.54197832315,-2.983007672731013,0.120645884475375,0.018936822373350003
3.8755626678466797,-0.22432711874999997,2.5651058271999996,9.523433948,-2.66887022416665,0.026572637846475,0.031459559749275
3.8825433254241943,-0.70887369525,2.9024938137999996,9.1453679772,-2.297769592172775,-0.0441350134346625,0.00671951761635
3.8898868560791016,-1.1706884570499998,3.2291140986999998,9.0664048314,-2.0153971359766127,-0.06918048818651251,-0.0085521133299
3.897081136703491,-1.3262219260499999,3.2656046433499997,9.135198481149999,-1.909259300900175,-0.1490511180354,0.0500909495037
3.9037187099456787,-1.1946166830499998,3.2273194817499995,9.03111069805,-1.9533943143348378,-0.22846359895590002,0.15241087684357502
3.9105112552642822,-1.1054840412,3.0065815969000003,9.09332408565,-2.09587863106335,-0.3677408731857,0.23273965562085
3.9177072048187256,-0.9355936366,3.3266216196499996,9.0520478958,-2.22782552243895,-0.5093088920574376,0.2729040450094875
3.9249379634857178,-0.60717873475,3.2757741393999997,8.624929061699998,-2.2808180818224377,-0.44532075839265006,0.27962356262583754
3.931558132171631,-0.38225341035,3.32781803095,8.7864445872,-2.2713496706357628,-0.3211623987996375,0.4213442978070375
3.938220739364624,-0.39720855159999996,3.6143585373,8.721838377,-2.219578841727975,-0.20357084051351249,0.5204571826482001
3.9451100826263428,-0.27517459899999996,3.9547375521499997,8.623134444749999,-2.1598667647281378,-0.1247692248308625,0.4986187503950625
3.951590061187744,-0.29611179675,4.1425741262499995,8.71047246965,-2.093129737493025,-0.054061573549725,0.408363411502725
3.9578750133514404,-0.54735816975,4.43689130605,8.75473968775,-2.051590901319225,0.039400807841325006,0.31337386701705
3.963778495788574,-0.39840496289999994,4.582255279,8.8199441036,-2.044260518465025,0.1082758634089125,0.23762657752365002
3.969712972640991,-0.16510475939999997,5.170889638599999,8.785846381549998,-2.0786216880940875,0.1565342171990625,0.19486601087415
3.9757893085479736,-0.20877377184999998,5.544768169849999,8.5435730933,-2.1671971475823377,0.133474054470225,0.1586722455315375
3.982128381729126,-0.7513462964,5.2618168974,8.386843212999999,-2.299144038957938,0.0768163036596375,0.11438451578741252
3.98860502243042,-1.33340039385,5.04706106905,7.996214923549999,-2.409710647008788,0.0368046305804625,0.0780380341353375
3.99472713470459,-1.6911273725499998,4.8921258057,7.6761749007999995,-2.4578162844894753,0.0505490984320875,0.0508545310510125
4.000603437423706,-1.64686015445,5.02672207695,7.436294435149999,-2.41719374617245,0.05177082890778751,0.030543261892500003
4.006589412689209,-1.4338989430499998,5.05663235945,7.72104032455,-2.3064744218121374,0.0123700210664625,0.0639881336647875
4.012892246246338,-1.0528419439999999,4.921437882549999,8.164908916849999,-2.1613939278227625,-0.047342055933375,0.17470745802510002
4.01947021484375,-0.8650053699,4.5254257422499995,8.6428752312,-1.9931005547950875,-0.06887505556758751,0.24251349942645
4.0256664752960205,-0.8422735552,4.6755753604,8.7948194663,-1.8089246855833125,-0.113926366859025,0.22296581181525
4.0315797328948975,-0.8135596839999999,5.02193643175,9.0233340246,-1.641089461484025,-0.17180584814531252,0.1733330112399375
4.037478923797607,-0.8099704500999999,5.22293353015,8.9539421692,-1.4653129892926877,-0.25305092477936253,0.1637118837438
4.043804168701172,-0.8823533337499999,5.487938633100001,8.737989929549999,-1.3596333031446375,-0.284357768219175,0.1846340181401625
4.050533056259155,-1.1246266219999999,5.693123171050001,8.168498150749999,-1.284344162579625,-0.302683725354675,0.20616701777437502
4.0567591190338135,-1.23409825595,5.7810594016,7.67677310645,-1.221425043081075,-0.3138320159454375,0.1907426705186625
4.062710762023926,-1.3980066040499999,5.8731830717,7.434499818199998,-1.1977540151143877,-0.32620203701190004,0.14737123863131252
4.068556308746338,-1.1575279327499999,5.8695938378,7.41236620915,-1.19790673142385,-0.3274237674876,0.1424843167285125
4.074905157089233,-0.8667999868499999,5.924030551949999,7.432106995599999,-1.2528846028303502,-0.2970332219045625,0.2292271805032125
4.081438779830933,-0.7028916387499999,6.2117674696,7.2646094136,-1.302670119715125,-0.24984388228065002,0.2527454921604375
4.087874174118042,-0.64426748505,6.241677752099999,7.185048062149999,-1.3238976867304126,-0.17470745802510002,0.2952006261910125
4.093796253204346,-0.6747759731999999,6.12502765035,7.104888505049999,-1.3080151905463127,-0.09972375007901249,0.31597004427791253
4.099656343460083,-0.77706913935,6.0610196458,7.192824735599999,-1.2655600565157374,0.0230601627288375,0.29565877511940003
4.10592246055603,-0.8662017812,6.211169263949999,7.323831772949999,-1.2008083413036377,0.1380555437541,0.23029619466945003
4.1124982833862305,-0.8739784546499999,6.51266491155,7.38604516055,-1.1357511934726126,0.2664899600120625,0.18295413873607502
4.11914324760437,-0.7489534737999999,6.53180749235,7.5900332872,-1.10872040669775,0.2695442862013125,0.1837177202833875
4.125107288360596,-0.8488538173499999,6.181857187099999,7.578667379849999,-1.093754208370425,0.30039298071273757,0.1754710395724125
4.130970478057861,-1.1641081949,6.283552147599999,7.4177500599999995,-1.0691668825469625,0.32910364689168753,0.1006400479357875
4.137815475463867,-1.36091785375,6.831508523,7.185646267799999,-1.0225884081609,0.32604932070243753,0.051312679979400005
4.144425392150879,-1.1162517428999998,6.502495415499999,7.176074977399999,-1.0053314651916376,0.33597588081750007,0.080328778777275
4.15100359916687,-1.1629117836,6.218347731750001,7.243074010199999,-0.97188659341935,0.3489567671218125,0.08048149508673749
4.156927108764648,-1.2203395259999998,6.2333028729999995,7.572685323349999,-0.8720101270308751,0.3462078735514875,0.041233403554875
4.162783622741699,-1.1491530536499999,6.29132882105,7.757530869199999,-0.6986771157909376,0.30390545583037504,0.0114537232096875
4.1689536571502686,-1.0773683756499999,6.2883377928,7.80359270425,-0.5059491332492625,0.23716842859526252,-0.02504547475185
4.175480127334595,-1.1210373881,6.212365675249999,7.966304641049999,-0.33047809367685005,0.1754710395724125,-0.1123992037644
4.181731224060059,-1.10249301295,6.385247108100001,7.99262568965,-0.19700403920662501,0.1256855226876375,-0.18356500397392503
4.187643766403198,-0.8907282128499999,6.886543442799999,7.847261716699999,-0.0502436658131625,0.0807869277056625,-0.153632607319275
4.1935296058654785,-0.91226361625,6.983452758099999,7.371090019299999,0.0410806872454125,0.062613686879625,-0.0499382331942375
4.199540853500366,-1.0247262784499998,6.711867392999999,7.1270221141,0.10613783507643751,0.049785516884775005,-0.0172569429692625
4.205874919891357,-1.0552347666,6.6592252958,6.71485842125,0.0841466865138375,0.03848450998455,-0.06414084997425
4.212676525115967,-0.9349954309499999,7.092924392049999,6.226124405199999,-0.003359758808175,0.033292155462825004,-0.0781907504448
4.2186057567596436,-0.7310073042999999,7.144968283599999,6.232106461699999,-0.129197997805275,0.0447458786725125,-0.043065999268425005
4.224543333053589,-0.8392825269499998,7.164709070049999,6.24107954645,-0.2309070599073,0.06414084997425,0.029016098797875
4.230527400970459,-1.0695917021999999,6.79262515575,6.5671016256999994,-0.32436944129835,0.12171489864161252,0.077274452588025
4.2370312213897705,-1.0492527101,6.690930195249999,6.5994047308,-0.344833426766325,0.180510677784675,0.06307183580801251
4.243728399276733,-0.8386843212999998,6.8374905795,6.894320116249999,-0.314901030111675,0.20082194694318753,0.029779680345187503
4.249631643295288,-0.7322037156000001,6.841678019050001,6.976872495949999,-0.27137688191486253,0.1977676207539375,0.010384709043450001
4.25550651550293,-0.7375875664499998,6.795616184,6.9990061049999985,-0.2160935778894375,0.18555031599693753,-0.025198191061312502
4.261389970779419,-0.7453642399,6.725027917299999,7.04865717395,-0.18753562801995,0.16920967088445,-0.043676864506275004
4.267663240432739,-0.7495516794499998,6.667600174899999,6.867400861999999,-0.16264286957756252,0.14966198327325,-0.053603424621337506
4.274168491363525,-0.7776673449999999,6.807580296999999,6.91944475355,-0.14110986994335,0.135306650183775,-0.0708603675906
4.280447959899902,-0.6580262149999999,6.963113765999999,6.801598240499999,-0.12156218233215,0.15332717470034998,-0.047342055933375
4.286372423171997,-0.7334001269,6.994220459799999,6.89073088235,-0.0902553388923375,0.176845486357575,-0.0018325957135500001
4.292219400405884,-0.75673014725,6.841678019050001,6.71007277605,-0.07757988520695,0.18967365635242503,0.031459559749275
4.29853892326355,-0.94217389875,6.820740821299999,6.79023233315,-0.0781907504448,0.20219639372835,0.031459559749275
4.3049726486206055,-1.14676023105,6.9619173547,6.726822534249999,-0.08261952341921251,0.19196440099436252,0.022296581181525
4.31118106842041,-1.2652049497499998,6.890132676699999,6.51505773415,-0.059559360690375006,0.1502728485111,-0.0154243472557125
4.3171985149383545,-1.2041879734499998,6.79023233315,6.4893348911999995,-0.0329867228439,0.084604835442225,-0.0410806872454125
4.323039531707764,-1.1868400096,6.688537372649999,6.5048882380999995,-0.020005836539587502,0.04825835379015,-0.049174651646925006
4.329223871231079,-1.1700902514,6.5742800935,6.687939167,-0.036346481652075,0.0374154958183125,-0.050396382122625004
4.335782527923584,-0.9355936366,6.6783678766,6.7669023128,-0.022296581181525,0.027641652012712504,-0.05161811259832501
4.342042684555054,-0.5156532703,6.7345992077,6.8733829185,0.0120645884475375,0.052228977836175,-0.023823744276150003
4.348260402679443,-0.41635113239999993,6.918846547899999,6.98285455245,0.055130587715962506,0.08491026806115,0.01404990047055
4.354870080947876,-0.4881358103999999,6.913462697049999,6.987041992,0.0807869277056625,0.10674870031428751,0.0183259571355
4.361834287643433,-0.7645068207,6.70767995345,6.964908382949999,0.08491026806115,0.15577063565175,-0.012522737375925
4.369216442108154,-0.6735795618999999,6.6939212235,6.86201701115,0.10201449472095,0.1185078561429,-0.049632800575312504
4.376383543014526,-0.63708901725,6.744170498099999,6.99721148805,0.15057828113002503,0.1354593664932375,-0.08124507663405
4.383010625839233,-0.65503518675,6.817749793049999,7.0576302587,0.2038762731324375,0.16355916743433752,-0.082772239728675
4.3897411823272705,-0.65982083195,7.134200581899999,6.99721148805,0.255647102040225,0.17318029493047501,-0.0160352124935625
4.396852731704712,-0.7238288365,6.74835793765,6.907480640549999,0.2924517326206875,0.1656971957668125,0.0853684169895375
4.404280424118042,-0.8273184139499999,6.439683822249999,6.9678994112,0.38301250413195004,0.1736384438588625,0.1580613802936875
4.411165237426758,-0.8811569224499999,6.6586270901499995,7.060621286949999,0.457232630530725,0.1818851245698375,0.1649336142195
4.417856931686401,-0.9523433947999999,6.6987068686999995,7.147361106199999,0.55161130977855,0.1730275786210125,0.13988813946765
4.424814462661743,-0.9116654106,6.507879266350001,7.375277458849999,0.647517152121,0.123700210664625,0.130419728280975
4.431981801986694,-0.8656035755499999,6.36789914425,7.52722169395,0.7637342636219626,0.0659734456878,0.1098030265035375
4.438945770263672,-0.8446663778,6.591029851699999,7.55952479905,0.9512698916419126,0.055130587715962506,0.09697485650868751
4.446450233459473,-0.68733829185,6.67298402575,7.498507822749999,1.1328495835928252,0.085521133299,0.07666358735017499
4.4523866176605225,-0.4235296002,6.608976021199999,7.51645399225,1.3125966798301876,0.142026167800125,0.053603424621337506
4.458612442016602,-0.12562318649999998,6.8817577976,7.247261449749999,1.3753630830192751,0.10674870031428751,0.0505490984320875
4.46514105796814,-0.23210379219999996,6.9637119716499996,7.091129775099999,1.2938125737663002,0.04184426879272501,0.1014036294831
4.471625566482544,-0.6658028884499999,6.448656907,6.920641164849998,1.174388419766625,0.05146539628886251,0.121256749713225
4.477548360824585,-0.8823533337499999,6.1603217837,6.8219372326,1.1258246333575501,0.1324050403039875,0.11102475697923751
4.483442544937134,-0.8662017812,6.257231098999999,6.949953241699999,1.1620183987001624,0.23732114490472503,0.09346238139105001
4.489678859710693,-0.49950171774999996,6.2392849295,7.323831772949999,1.2689198153239127,0.29367346309638753,0.065668013068875
4.496304273605347,-0.25663022385,6.277570091099999,7.680362340349999,1.3903292813466002,0.2405281874034375,0.008246680710975
4.502745866775513,-0.16809578764999997,6.2428741634,7.9142607494999995,1.5070045417759501,0.239764605856125,-0.040775254626487505
4.508662462234497,-0.31884361145,5.8648081926,7.931608713349999,1.5946637034074251,0.20525071991760002,-0.0881173105598625
4.514591455459595,-0.5766702466,5.5776694806,7.924430245549999,1.6908749783688002,0.180510677784675,-0.10461067198181251
4.520724296569824,-0.8949156524,5.877968716899999,7.85743121275,1.747380012869925,0.10720684924267501,-0.11133018959816252
4.52716588973999,-1.2131610581999999,6.093322750899999,7.679764134699999,1.7250834316884,-0.015882496184100002,-0.13500121756485
4.533607244491577,-1.2125628525499998,5.7439706513,7.44706213685,1.6621643121898502,-0.1369865295878625,-0.1527163094625
4.539748430252075,-1.0115657541499998,5.4927242783,7.46620471765,1.5836681291261252,-0.21197023753395,-0.1223257638794625
4.545714378356934,-1.0863414604,5.504688391299999,7.34895641025,1.5534302998525502,-0.258090562991625,-0.08246680710975
4.552545547485352,-0.9690931529999999,5.32582490195,7.3782684871,1.5413657114050128,-0.24846943549548753,-0.09422596293836251
4.559628248214722,-0.50548377425,5.27318280475,7.727022381049999,1.5234979031979001,-0.24434609514000002,-0.1649336142195
4.567100286483765,-0.19441683624999997,5.130211654399999,7.98784004445,1.4894421661877626,-0.21548271265158753,-0.2597704423957125
4.573736190795898,-0.20638094924999997,5.183451957249999,8.461618919249998,1.4799737550010876,-0.153632607319275,-0.3733913766358125
4.58037543296814,-0.24227328824999997,4.8777688701,8.70329400185,1.5393803993819999,-0.0832303886570625,-0.486554161947525
4.587371110916138,-0.09272187574999999,4.843671148049999,8.997611181649999,1.6505578726707,0.0157297798746375,-0.5867360609549249
4.594829559326172,0.34217363179999993,5.4855458105,8.977870395199998,1.80999369974955,0.064446282593175,-0.47861291385547505
4.601954221725464,0.42891345105,5.9371910762499995,8.793623055,1.92361463398965,0.065668013068875,-0.215329996342125
4.608621835708618,0.10289137179999999,5.4939206895999995,8.35035266835,1.9146043717313626,0.0346666022479875,0.0025961772608625003
4.615315198898315,-0.34636107135,4.7659044135499995,7.81914605115,1.7898351469005,-0.052839843074025006,0.05543602033488751
4.622400522232056,-0.73280192125,4.49910469365,7.875377382249999,1.5639677252054627,-0.16187928803025,0.0024434609514
4.629571437835693,-0.7405785947,4.7306102802,7.84546709975,1.3645202250474375,-0.2719877471527125,-0.0105374253529125
4.636259078979492,-0.5587240770999999,4.6157547954,7.898707402599999,1.2345586456948503,-0.2915354347639125,0.00045814892838750003
4.642873764038086,-0.4474578262,4.3238304382,7.977072342749999,1.239140134978725,-0.2370157122858,-0.005497787140650001
4.649312973022461,-0.41455651544999994,4.07916432735,8.22951512705,1.3087787720936253,-0.1942551456363,-0.028405233560025
4.655717372894287,-0.346959277,3.7998022887999996,8.519644867299998,1.3999504088427375,-0.17776178421435,-0.1006400479357875
4.6623694896698,-0.4959124838499999,3.7166517034499993,8.671589102399999,1.4485141952518126,-0.127976267329575,-0.2235766770531
4.668260335922241,-0.46540399569999996,3.7782668854,8.89352339855,1.49356550654325,-0.0810923603245875,-0.3379611928405125
4.67413592338562,-0.1004985492,4.1527436223,9.0113699116,1.5224288890316626,-0.0539088572402625,-0.370489766756025
4.68013072013855,0.28055844984999995,4.3806599749499995,9.164510558,1.5367842221211376,-0.0621555379512375,-0.27550022227035004
4.6867194175720215,0.05204389154999999,4.110271021149999,8.95214755225,1.54121299509555,-0.0655152967594125,-0.11514809733472502
4.693357467651367,-0.20877377184999998,3.784248941899999,9.019744790699999,1.5505286899727626,-0.0684169066392,-0.0029016098797875
4.699313640594482,-0.5736792183499999,3.8691941441999997,8.797212288899999,1.5908457956708626,-0.0965167075803,0.032070424987125
4.705214023590088,-1.0480562988,3.5796626096,8.53101077465,1.6307047524405751,-0.1282816999485,0.037873644746700005
4.711098670959473,-1.0229316615,3.357728313449999,8.52622512945,1.58763875317215,-0.17592918850080003,0.049021935337462505
4.717425346374512,-1.13599252935,3.2147571630999994,8.737989929549999,1.4314099685920125,-0.2698497188202375,0.055130587715962506
4.723925828933716,-1.4781661611499999,3.1872397031999995,9.108279226899999,1.2554807800912124,-0.30039298071273757,0.0578794812862875
4.730108261108398,-1.3531411802999997,3.0478577867500003,9.176474671,1.1039862011044126,-0.29061913690713753,0.048563786409075
4.736041307449341,-0.96131647955,2.9276184510999994,9.244670115099998,1.0358747270841375,-0.2736676265568,0.038789942603475
4.741927146911621,-0.6957131709499998,2.83848580925,9.5425765288,1.0393872022017752,-0.2759583711987375,0.00061086523785
4.7485175132751465,-0.5581258714499999,2.6356940938999998,9.776474937949999,1.1357511934726126,-0.29794951976133754,-0.09804387067492501
4.756718158721924,-0.6699903279999999,2.46400907235,9.777073143599997,1.2661709217535875,-0.316733625825225,-0.21563542896105
4.7637434005737305,-0.5204389155,2.4514467537,9.664012275749998,1.4126258625281252,-0.377209284372375,-0.2590068608484
4.7703797817230225,-0.08793623055000001,2.6368905051999993,9.30508888575,1.5599971011594376,-0.5065599984871125,-0.24220806680752502
4.77717661857605,-0.46480579005,2.7744778047,8.8331046279,1.6737707517090001,-0.6006332451160125,-0.223882109672025
4.784381866455078,-0.9296115801,2.72961238095,8.493922024349999,1.70859007026645,-0.5392412887120875,-0.18692476278210002
4.791494131088257,-1.0755737586999998,2.6656043763999993,8.378468333899999,1.707062907171825,-0.379652745323775,-0.11667526042935
4.798157453536987,-0.8482556117,2.8971099629499997,8.496314846949998,1.6452128018395127,-0.2438879462116125,-0.022602013800450002
4.804776191711426,-0.6963113766000001,2.68055951765,8.6153577713,1.5212071585559626,-0.0928515161532,0.1308778772093625
4.811789035797119,-0.88354974505,2.21635193325,8.870791583849998,1.3646729413569,0.066278878306725,0.30680706571016253
4.819142580032349,-0.9014959145499999,1.8705890675499997,9.40798025755,1.3119858145923375,0.08857545948825,0.37171149723172503
4.826359987258911,-0.7920242806,1.50089797585,9.705886671250001,1.3703234448070125,0.0029016098797875,0.3978259861498125
4.833003520965576,-0.7345965381999999,1.2101700299499998,9.6526463684,1.4889840172593751,-0.1944078619457625,0.3804163268710875
4.839770078659058,-0.93140619705,1.9417755398999998,9.503693161549998,1.6461290996962876,-0.4190535531651,0.097433005437075
4.84689998626709,-1.5738790651499999,5.28993256295,9.099306142149999,1.5937474055506502,-0.727845930898275,-0.6620252015199376
4.853440999984741,-1.3208380751999997,0.10109675484999998,10.00498949625,1.3833043311113251,-0.9721920260382751,-0.7512115262460376
4.85957670211792,-0.7956135144999998,-2.00937277835,9.9984092341,1.1662944553651124,-0.9604328702096625,-0.518930019553575
4.865517616271973,-0.8087740387999999,-0.34576286570000003,9.620941468949999,0.9509644590229875,-0.7382306399417251,-0.1043052393628875
4.8714072704315186,-0.48933222169999996,2.1463618722,8.8438723296,0.8831584176216376,-0.526260402407775,0.09804387067492501
4.87793755531311,-0.1483550012,3.6143585373,8.35394190225,0.9419541967647,-0.50274209075055,0.01771509189765
4.884686470031738,-0.44207397535,2.823530668,8.6895352719,0.8507825600155875,-0.47219882885805003,-0.142637033037975
4.89069676399231,-0.59282179915,1.66959196915,9.1274218077,0.6099489399932251,-0.364381114377525,-0.17287486231155003
4.896660089492798,-0.8841479507,1.3531411802999997,9.442077979599999,0.35857789461795003,-0.23579398181010003,-0.082161374490825
4.902547121047974,-1.14436740845,1.34656091815,9.335597373899999,0.16355916743433752,-0.04550946021982501,0.034055737010137505
4.9088454246521,-1.1365907349999997,1.3962119870999998,9.0233340246,0.10690141662375001,0.1404990047055,0.101709062102025
4.915472030639648,-0.99601240725,1.5176477340499999,9.20339392525,0.15118914636787503,0.23732114490472503,0.105985118766975
4.921940803527832,-1.1353943237,1.2658031554,9.63529840455,0.1992947838485625,0.24434609514000002,0.09147706936803751
4.928039789199829,-1.3310075712499998,0.6299105494499999,9.892526834049999,0.21548271265158753,0.2292271805032125,0.037568212127775
4.933964490890503,-1.24606236895,0.37088750299999995,9.958329455549999,0.252592775850975,0.2309070599073,0.016798794040875
4.940251588821411,-1.22811619945,0.25782663515,9.954142015999999,0.3477350366461125,0.21853703884083753,0.022296581181525
4.946897506713867,-1.0444670649,0.22612173569999997,10.357930829749998,0.48563786409075005,0.1769982026670375,0.036651914271
4.953427314758301,-0.8991030919499998,0.6065805290999999,10.336993631999999,0.6177374717758125,0.088270026869325,0.046731190695525004
4.959465742111206,-1.0133603711,0.5359922624,10.313065405999998,0.7680103202869125,0.0450513112914375,0.053450708311875005
4.9654011726379395,-0.94217389875,0.5347958510999999,10.32921695855,0.8761334673863626,-0.046731190695525004,0.0696386371149
4.971809148788452,-0.7974081314499999,0.7202396026000001,10.189236836449998,0.990517983173775,-0.1624901532681,0.0740674100893125
4.978464365005493,-0.8506484342999999,1.0396814197,9.812367276949999,0.9837984655574251,-0.2570215488253875,0.000305432618925
4.9848792552948,-0.99601240725,1.4811571894,9.4851487864,0.8936958429745501,-0.28970283905036254,-0.015577063565175001
4.990856885910034,-1.26161571585,1.6492529770499997,9.131011041599999,0.7160867750696626,-0.26847527203507504,-0.050396382122625004
4.996793746948242,-1.39322095885,1.4985051532499998,8.991030919499998,0.509767040985825,-0.19669860658770003,-0.0499382331942375
5.00291633605957,-1.6031911419999998,1.3950155758,8.46520815315,0.33047809367685005,-0.093767814009975,-0.0221438648720625
5.009333610534668,-1.42313124135,1.3166506356499998,8.37188807175,0.2084577624163125,0.0346666022479875,0.0126754536853875
5.0157928466796875,-1.03190474625,1.2717852119,8.800801522799999,0.11896600507128752,0.14584407553668752,0.0459676091482125
5.021795034408569,-0.7908278692999998,1.2023933564999998,9.00598606075,0.0354301837953,0.19883663492017503,0.06780604140135
5.027793884277344,-0.8667999868499999,0.8051848048999999,9.4145605197,-0.0142026167800125,0.2273945847896625,0.07910704830157501
5.0338294506073,-1.07497555305,0.3355933696499999,9.6574320136,-0.019853120230125,0.2466368397819375,0.077274452588025
5.040384531021118,-1.2753744458,0.19740786449999997,9.896116067949999,0.0169515103503375,0.2761110875082,0.06734789247296251
5.047272205352783,-1.22572337685,0.3152543775499999,10.229316614999998,0.0936150977005125,0.22113321610170003,0.11026117543192501
5.053296089172363,-1.0247262784499998,0.0029910282499999996,10.34835953935,0.1440114798231375,0.10445795567235,0.13668109696893752
5.059283971786499,-1.0773683756499999,-0.021535403399999997,10.32921695855,0.2003637980148,-0.04199698510218751,0.1241583595930125
5.066023588180542,-1.2335000503,0.4097708702499999,10.1587283483,0.2649627969174375,-0.1748601743345625,0.09498954448567501
5.072424411773682,-1.2699905949499997,0.32482566794999995,9.8572327007,0.35781431307063755,-0.27351491024733754,0.07269296330415
5.079245328903198,-0.9816554716499999,0.47976093129999997,9.721440018149998,0.45265114124685,-0.3579670293801,0.0667370272351125
5.08523964881897,-0.8027919822999998,0.3780659708,9.535996266649999,0.5229006435996001,-0.4544837369604,0.07559457318393752
5.0911805629730225,-0.7555337359499998,0.5264209719999999,9.6167540294,0.527482132883475,-0.56749380596265,0.06505714783102501
5.097176551818848,-0.96012006825,0.8709874264,9.539585500549999,0.4833471194488125,-0.5925392807145,0.0508545310510125
5.103553533554077,-1.07497555305,0.8338986760999999,9.388837676749999,0.41951170209348754,-0.5132795161034625,0.080939644015125
5.110056638717651,-1.16949204575,0.79621172015,9.47497929035,0.3651446959248375,-0.37201692985065,0.13377948708915002
5.1162989139556885,-1.2550354536999997,0.7782655506499999,9.6047899164,0.30894509404263754,-0.2854267823854125,0.170736833979075
5.122252702713013,-1.2113664412499998,0.8518448456000001,9.57308501695,0.207999613487925,-0.248927584423875,0.16386460005326253
5.128157377243042,-1.3178470469499999,0.4941178668999999,9.695118969549998,0.1736384438588625,-0.26526822953636253,0.10919216126568751
5.1346588134765625,-1.6624135013499999,0.39481572899999995,9.858429112,0.11667526042935,-0.33047809367685005,0.036651914271
5.141338109970093,-1.9292132212499997,0.1806581063,9.862616551549998,0.1247692248308625,-0.4337143188735,-0.0135917515421625
5.147628545761108,-2.0333010043499997,-0.1280160091,9.97866844765,0.18493945075908752,-0.57848938024395,-0.059559360690375006
5.153659105300903,-1.9357934833999997,-0.14297115034999996,10.039087218299999,0.31123583868457505,-0.6895141372231876,-0.0975857217465375
5.159574270248413,-1.7545371714499998,0.0131605243,9.8380901199,0.4353941982775875,-0.848186382754725,-0.137139245897325
5.165855407714844,-1.8628123941,0.1471585899,9.967302540299999,0.565966642868025,-0.9847147634142002,-0.16447546529111248
5.172534704208374,-1.8424734019999998,0.22731814699999997,9.853643466800001,0.672257194253925,-1.1013900238435501,-0.15913039445992502
5.179107189178467,-1.85025007545,0.1950150419,9.558728081349999,0.7322747038726876,-1.1838568309533002,-0.17776178421435
5.1850905418396,-1.6953148121,0.31405796625,9.44865824175,0.7689266181436876,-1.2341004967664626,-0.18203784087930003
5.190993785858154,-1.5936198515999997,0.42652062845,9.26560731285,0.78251836968585,-1.2606731346129374,-0.157908663984225
5.197236061096191,-1.5481562222,0.3840480273,9.13400206985,0.7316638386348375,-1.2789990917484375,-0.14996741589217502
5.203763246536255,-1.6707883804499999,0.38823546685,9.2650091072,0.6149885782054876,-1.2976304815028625,-0.1485929691070125
5.210024118423462,-1.7605192279499997,0.37986058775,9.263214490249998,0.5239696577658375,-1.3019065381678125,-0.097433005437075
5.216031789779663,-2.2055842315499996,0.29611179675,9.32423146655,0.43447790042081247,-1.3040445665002875,-0.0484110700996125
5.221948862075806,-2.5064816734999997,0.05802594804999999,9.190831606599998,0.38667769555905,-1.3410019133902127,-0.0413861198643375
5.228085517883301,-2.5920250814499997,-0.19441683624999997,9.058628157949999,0.36911531997086255,-1.3961325011061751,-0.082161374490825
5.234614610671997,-2.7050859492999995,-0.3272184905499999,9.080163561349998,0.339946504863525,-1.386358657300575,-0.13836097637302502
5.241312265396118,-2.95334129405,-0.21355941705,8.99521835905,0.342084533196,-1.3745995014719625,-0.1391245579203375
5.247382879257202,-2.8989045798999995,-0.0765703232,9.001200415549999,0.334448717722875,-1.377806543970675,-0.1424843167285125
5.25371789932251,-2.7511477843499996,0.07537391189999999,9.0963151139,0.2609921728714125,-1.4118622809808126,-0.170736833979075
5.260648965835571,-2.7481567560999998,0.0729810893,9.178867493599999,0.1705841176696125,-1.508531704870575,-0.231823357764075
5.267975091934204,-2.90309201945,0.021535403399999997,9.14476977155,0.0789543319921125,-1.6444492202922,-0.3138320159454375
5.275404691696167,-2.9389843584499995,0.14955141249999998,8.997611181649999,0.1675297914803625,-1.7324138145426,-0.33597588081750007
5.282094240188599,-3.02751879465,0.22971096959999998,9.1130648721,0.292299016311225,-1.7282904741871126,-0.29978211547488753
5.28875994682312,-3.00478697995,0.09152546445000001,9.294919389699999,0.3675881568762375,-1.7055357440772,-0.2577851303727
5.295842170715332,-3.15314198115,-0.10827522265,9.4504528587,0.4051563690040125,-1.665524070998025,-0.23854287538042498
5.303220987319946,-3.38883500725,-0.30448667585,9.56949578305,0.42699480125715006,-1.625817830537775,-0.21991148562600002
5.3103392124176025,-3.3667013982,-0.1878365741,9.650851751449999,0.4495968150576,-1.6161967030416375,-0.1776090679048875
5.317104339599609,-3.4211381123499995,-0.31106693799999996,9.67238715485,0.454789169579325,-1.64261662457865,-0.17226399707370002
5.323953866958618,-3.6717862797,-0.5491527867,9.35414174905,0.444404460535875,-1.690569545749875,-0.22602013800450002
5.331267595291138,-4.00977247195,-0.5563312544999999,9.1920280179,0.408363411502725,-1.7029395668163376,-0.27046058405808754
5.338435173034668,-4.5355952383,-0.54376893585,8.880362874249998,0.37919459639538755,-1.6500997237423125,-0.2194533366976125
5.345160722732544,-4.5212383027,-0.57128639575,8.63031291255,0.38545596508335,-1.6219999228012125,-0.16187928803025
5.352031707763672,-4.36510662805,-0.37328032559999996,8.602197247,0.3978259861498125,-1.6427693408881128,-0.1852448833780125
5.358468294143677,-4.27178654665,-0.0646062102,8.685347832349999,0.411417737691975,-1.7510452042970253,-0.2215913650300875
5.365029573440552,-4.399802555749999,-0.15134602945,8.4957166413,0.4216497304259625,-1.777923274762425,-0.22647828693288752
5.371293783187866,-4.4614177377,-0.26141586904999997,8.422137346349999,0.42073343256918755,-1.7909041610667376,-0.23640484704795
5.378223657608032,-4.44765900775,-0.04007977854999999,8.4000037373,0.4118758866203625,-1.8073975224886876,-0.25320364108882504
5.384169816970825,-4.6396830214,0.0634097989,8.3808611565,0.3727805113979625,-1.7994562743966376,-0.2368629959763375
5.3904502391815186,-4.888536571799999,-0.24406790519999996,8.32163879715,0.2988658176181125,-1.694234737176975,-0.18631389754425
5.397273540496826,-4.9136612091,-0.4761716973999999,8.220542042299998,0.24724770501978752,-1.6224580717296,-0.1592831107693875
5.40375280380249,-4.79820751865,-0.0669990328,8.163712505549999,0.23884830799935,-1.5995506253102252,-0.18081611040360002
5.409705877304077,-4.992026149249999,0.044267218100000005,8.151150186899999,0.23441953502493754,-1.63650797220015,-0.19700403920662501
5.415611982345581,-5.450251677149999,-0.08374879099999999,8.146962747349999,0.225103840147725,-1.6931657230107375,-0.22647828693288752
5.421809911727905,-5.68355188065,-0.20877377184999998,8.043473169899999,0.205556152536525,-1.742493090967125,-0.2895501227409
5.428362131118774,-5.4113683099,-0.2835494781,8.3054872446,0.19761490444447502,-1.7289013394249624,-0.3251330228456625
5.43474268913269,-5.98744035085,-0.9768698264499999,8.5998044244,0.20616701777437502,-1.6937765882485878,-0.322842278203725
5.440701961517334,-5.55792869415,-1.03788680275,8.5842510775,0.20708331563115004,-1.6980526449135376,-0.2536617900172125
5.446652889251709,-5.175675283799999,-0.7220342195499999,8.7182491431,0.201280095871575,-1.743714821442825,-0.16814065671821252
5.452868700027466,-5.407779075999999,-0.51625147595,8.64347343685,0.21762074098406253,-1.8133534585577251,-0.1345430686364625
5.460136651992798,-5.57228562975,-0.5210371211499999,8.4550386571,0.25641068358753755,-1.8306104015269875,-0.11041389174138751
5.467382907867432,-5.3575298014,-0.6125625856,8.236095389199999,0.263588350132275,-1.8521434011612,-0.12263119649838751
5.474136829376221,-5.267798953899999,-0.38883367249999995,8.181060469399998,0.239764605856125,-1.9283488395829878,-0.148745685416475
5.4808197021484375,-5.597410267050001,-0.1328016543,7.95075129415,0.1821905571887625,-1.9840902925368,-0.16920967088445
5.487814664840698,-6.044269887599999,0.05802594804999999,7.6516484691499995,0.1253800900687125,-2.0352502562067376,-0.196393173968775
5.495056629180908,-6.3158552527,-0.00658026215,7.2107709050999995,0.0578794812862875,-2.0587685678639627,-0.2272418684802
5.5020482540130615,-6.7393848529,-0.13459627124999998,6.787241304899999,0.0221438648720625,-2.0395263128716876,-0.2394591732372
5.508820533752441,-7.10010285985,-0.24705893344999996,6.451049729599999,0.0001527163094625,-1.9825631294421753,-0.25961772608625
5.515606641769409,-7.385446954899999,-0.17886348935000002,6.390630958949999,-0.014660765708400001,-1.9283488395829878,-0.2651155132269
5.522815465927124,-7.695317481599999,-0.34755748264999997,6.31764986965,-0.027641652012712504,-1.8807013510306876,-0.255647102040225
5.530176162719727,-7.793423208199999,-0.51984070985,6.5072810607,-0.026419921537012503,-1.89795829399995,-0.2748893570325
5.53691840171814,-7.517650403549999,-0.5826523030999999,6.7728843693,0.0050396382122625,-1.9552269100483874,-0.31902437046716253
5.543649911880493,-7.40518774135,-0.59641103305,6.844669047299999,0.045356743910362506,-1.9718729877798,-0.38179077365625
5.550775766372681,-7.246065038449999,-0.5144568589999999,6.7860448936,0.0989601685317,-1.8839083935294,-0.38515053246442504
5.557796001434326,-7.1114687672,-0.35593236175,6.8434726359999996,0.1253800900687125,-1.68171199980105,-0.31016682451833755
5.564177751541138,-6.90389140665,-0.43010986235,6.9128644914,0.1198823029280625,-1.5205962933181127,-0.2162462941989
5.570122718811035,-6.728617151199999,-0.4701896408999999,6.9726850564,0.0905607715112625,-1.3362677077968752,-0.11178833852655
5.5760273933410645,-6.61675269465,-0.34995030525,6.9595245321,0.058795779143062506,-1.214094660226875,-0.0374154958183125
5.5821452140808105,-6.7094745703999985,-0.0263210486,6.735795619,0.0187841060638875,-1.1259773496670125,0.0427605666495
5.588604927062988,-6.927221427,-0.0681954441,6.4247286809999995,0.0087048296393625,-1.066265272667175,0.08002334615835001
5.5950775146484375,-7.027121770549999,-0.00059820565,6.30090011145,0.0027488935703250004,-1.016785188401325,0.0847575517516875
5.601020574569702,-7.1138615898,-0.005383850849999999,6.1627146063,-0.007177666544737501,-0.9889908200791501,0.0940732466289
5.606937646865845,-7.29392149045,0.04307080679999999,5.96710135875,-0.030695978201962505,-0.957531260329875,0.08994990627341251
